rotation_x,rotation_y,rotation_z,acceleration_x,acceleration_y,acceleration_z
0.0510109,0.101089,0.0192015,0.0117145,-0.000131309,-0.017433
0.0476353,0.0113247,-0.00266709,0.0014593,-0.00760436,-0.0141265
-0.268754,0.00517494,0.00901011,-0.00720412,0.00977427,-0.0017997
-0.644583,-0.0136792,0.0600792,0.00736171,0.00262532,0.0240506
-0.60088,0.0311501,0.0588842,0.00558859,0.00963062,0.000767708
-0.340715,0.0363474,0.0886708,0.00219864,0.0222406,-0.0252307
-0.352739,-0.084421,0.0488087,0.000331283,0.011843,-0.0380741
-0.198973,-0.215053,-0.0619549,-0.00461262,0.00470293,-0.0200541
-0.0649479,-0.103076,-0.11026,-0.00693196,-0.0104077,0.0181729
0.235509,0.0775016,0.0488929,-0.00110573,-0.0181903,0.0337681
-0.0917548,-0.0216229,0.0322831,0.00382853,-0.00691476,0.0323125
-0.293753,-0.061924,0.110852,0.0125693,0.0142199,0.0542189
-0.449797,-0.0723159,0.209703,0.0331922,-0.00311753,0.0582014
-0.475496,0.0205852,0.180157,0.0242929,-0.0218921,0.061222
-0.397135,0.104759,0.0912228,0.0246708,-0.023304,0.0121454
-0.303275,0.0609263,0.111091,-0.0203212,-0.0351724,-0.0245818
0.042917,0.0670443,0.0941829,-0.0252513,0.0204283,-0.0354044
-0.0822599,-0.0323382,0.0174298,-0.00865734,0.0536563,-0.0644504
0.179036,-0.0199586,-0.120571,-0.0132244,0.0102336,-0.0155032
-0.106695,-0.000570124,-0.151681,0.0122894,-0.0527492,0.0333428
0.232395,0.132754,-0.120291,-0.0132245,-0.0544552,0.0131699
0.262816,0.218347,-0.0299162,-0.0128708,-0.0371476,-0.027472
0.371016,0.256884,0.0642644,-0.00599176,-0.0229643,-0.0391062
0.385788,0.207701,0.0443377,-0.0194452,0.0186355,-0.0302293
0.47074,0.163763,6.48168e-05,0.0173904,0.0430851,-0.0227598
0.265773,-0.053319,-0.223669,0.0188577,0.041121,-0.014481
0.193614,-0.185927,-0.340608,-0.00796622,0.0368698,0.0311007
0.0659725,-0.30325,-0.293314,0.0793768,0.0140072,0.0140578
0.0346271,-0.186629,-0.200164,-0.0284518,-0.00600132,0.0553623
0.433372,-0.14841,-0.162591,-0.0174162,0.0304962,0.0411332
-0.0710722,-0.101925,-0.065416,0.0160235,0.0235995,0.0645789
0.292866,0.0207994,0.0238325,0.0017575,0.0232377,0.00621074
0.106741,0.107551,0.0727902,0.0145652,0.00802901,-0.0480311
0.209183,0.0893612,0.100003,-0.0134881,-0.0187894,-0.0617155
0.0594336,-0.00330208,0.189792,0.0171916,0.0125516,0.00416756
-0.532201,-0.0210931,0.144955,0.0106924,0.0247783,0.0649289
0.0765991,0.106415,0.0213995,-0.0145257,0.00968325,0.059594
-0.0521678,0.086267,0.0498949,0.0186903,-0.00896734,0.00218284
0.0285671,0.0807939,0.00963274,-0.0028795,-0.0190761,-0.0347573
0.0991596,0.0274167,0.059393,-0.0151491,0.00262344,-0.0421243
-0.270891,-0.0706558,0.0148358,0.00376964,-0.0137822,0.0106683
-3.87087,-0.483472,-0.59964,0.0146986,-0.0740927,-0.10406
0.626637,-0.27936,-0.438815,-0.185893,0.193376,-0.11765
-0.115734,-0.478438,-0.372991,0.0138841,0.0592503,0.0595701
-0.192066,-0.19279,-0.156096,0.0753307,-0.0461695,0.0856863
-0.229258,0.0230114,-0.158705,0.0285362,-0.102131,0.0676552
0.933682,0.242909,0.256645,0.0107678,0.0373272,0.0166759
1.62506,0.451993,0.392501,-0.000782013,-0.0732338,0.00589967
-2.30129,0.0922882,0.0766928,0.0186111,-0.113952,0.0178895
-1.98955,0.0243201,-0.171715,0.0373904,0.108062,0.120269
-1.10061,0.105978,-0.127248,0.0739582,0.0915741,0.0176533
-0.564128,-0.152115,0.341212,0.0103405,-0.138375,-0.155537
-0.960668,-0.221288,0.318806,0.000599086,-0.02049,0.0917604
0.0315729,0.0760196,0.334482,-0.014021,-0.00474703,0.050866
-1.06402,0.0105563,0.298752,0.0423096,0.0273733,0.0065937
-1.1428,-0.0590983,0.137571,0.0671485,-0.0154347,-0.0573065
-0.47177,0.131947,-0.275712,0.04404,-0.0418827,0.0366809
-0.883164,0.289361,-0.842413,0.0966486,-0.0175364,0.000889063
-0.281753,0.260027,-1.47463,0.128742,0.10774,-0.0601959
-0.637437,-0.0356709,-2.12794,0.143064,0.110097,-0.085849
-0.43465,-0.12989,-2.77511,0.0959697,0.11994,0.0453888
-1.59986,-0.28116,-3.04133,0.119318,-0.154958,-0.112493
-3.42081,0.534242,-2.40169,-0.197259,-0.222262,0.25185
-2.52859,2.89075,-0.767145,-0.265444,-0.180514,0.356366
-2.99068,2.09783,0.072861,0.323277,0.109525,-0.0999303
-1.35415,-0.382665,0.10362,0.801251,0.435977,-0.518022
-0.638849,-0.761325,0.729523,-0.0741046,0.00690937,-0.0573504
-0.392922,-0.701316,0.33366,-0.0871744,0.0701028,0.0223721
0.0679488,-0.111183,0.198003,-0.113906,0.0261754,0.0879067
0.117808,0.0478526,0.146941,-0.0350223,-0.0300523,-0.0173743
0.0353092,-0.0397974,0.0788204,-0.00948858,-0.0517542,-0.0335429
-0.00121025,-0.0729643,0.0329553,-0.0383816,0.0338767,-0.0156138
0.0141995,-0.158586,-0.0551137,0.0194666,0.0010981,-0.0230088
0.0542057,-0.181187,-0.133881,-0.0220056,0.0225999,-0.0176384
0.182672,-0.032961,-0.224112,-0.0583897,0.0432271,-0.0042026
0.116719,-0.0307438,-0.206209,0.118551,-0.0196254,-0.00194812
-0.0765142,-0.155044,0.0983796,0.026678,-0.000250161,0.012089
-0.0168477,-0.0717824,0.090583,0.00498158,0.0237275,-0.0211668
-0.0249118,-0.120017,-0.00636023,0.0126642,-0.0195054,0.0105772
-0.057813,-0.024897,0.0067869,0.0122142,0.00778317,0.018183
-0.000518755,-0.0410323,-0.032426,0.00619426,0.0142337,0.0173817
0.0391141,-0.0207079,0.000711489,-0.0143545,-0.0131472,0.00430799
0.0297502,-0.00354669,0.0368933,0.0108883,0.00134715,-0.00738013
0.147811,-0.0603039,0.00671878,0.0187761,0.0115756,0.00857449
-0.0153774,-0.0260524,-0.0240292,0.00857148,-0.0248778,-0.0088985
-0.0641816,-0.0526545,0.0133546,-0.00981189,-0.00379151,-0.00295615
0.00917545,-0.0111042,-0.0176251,-0.0011597,0.00482586,-0.000136018
0.0456853,0.00283513,0.028365,0.00264837,-0.0106932,0.00406694
0.0190842,0.000730253,0.034689,0.0037652,0.00255099,-0.00767982
0.0104945,0.0103296,0.0228423,0.00334466,0.00652224,-0.00457573
0.00717796,0.0263184,0.00135544,-0.00045076,0.00480527,0.00663996
0.0349834,-0.000373228,0.0208638,0.00143172,-0.0069682,-0.0085851
0.00213062,0.0242672,0.0483634,-0.00151618,-0.00538954,-0.00619149
0.0265751,0.0135497,0.0389093,-0.000549152,0.00590014,-0.000892639
0.0296028,0.0209745,0.010024,0.00829259,-0.0110762,0.000285387
-0.0065593,0.0252935,0.0205441,-0.00185095,-0.00466353,-0.00271297
-0.0142151,0.00174465,-0.0103165,0.0208417,-0.010021,-0.00644493
-0.0377186,-0.0196163,-0.0188141,0.00279228,0.0056237,-0.00800145
-0.0270421,-0.0281618,-0.0144462,0.0108443,-0.00265196,0.00724125
0.00162679,0.0134397,-0.0349069,-0.0142821,0.000296444,-0.00106859
0.0134377,0.014525,-0.0199111,0.0118214,-0.0086098,-0.00711918
-0.0194277,0.00178251,0.0088951,0.0062048,-0.00549558,-0.00202322
-0.0099429,-0.00359539,-0.00812988,0.00501129,-0.00330245,-0.00445032
0.000686392,-0.0174959,-0.0112043,0.00595319,0.00433615,0.00374126
0.0146324,0.00495079,0.00259044,0.0055172,-0.0061093,0.0048604
0.0147136,0.000701092,0.0165106,0.00226749,-0.00389066,-0.000222325
0.000820398,-0.00463917,0.0100793,0.00604452,-0.00186443,-0.00384474
-0.00133174,-0.00891718,0.00689628,0.00606997,-0.000235081,-0.0111169
-0.0214986,-0.00567487,0.0196208,0.00594966,-0.00252998,0.00490665
-0.00559128,0.00924389,0.00569318,0.0013258,0.000821888,0.000688076
0.017753,0.0188101,-0.0113762,-0.000187248,0.00588498,0.00615406
0.0178845,0.026325,0.00994393,-0.000618815,-0.00345638,0.00418794
0.0148361,0.0285058,0.0344945,0.0028767,-0.00607976,-0.00258577
0.0563257,0.0241836,0.0239925,0.00579077,0.0106225,-0.00760162
0.017811,0.0070787,-0.000615754,-0.00186181,-0.00938901,-0.00822806
-0.0280968,-0.00679801,-0.0145868,0.0150182,-0.00542939,-0.000769615
0.0176938,-0.0100441,-0.0186687,0.011876,0.00660768,-0.00716281
-0.00249734,-0.0174902,-0.00907856,-0.0020377,-0.0055922,-0.00595331
-0.00780496,-0.0153432,-0.00590928,0.0075855,-0.00530705,-0.000505805
-0.0109573,-0.00357963,0.00041371,0.00584842,-0.00245759,-0.00396287
-0.0300857,-0.0163669,0.0100412,0.0010722,0.00680235,-0.00119662
-0.0269955,0.000687288,-0.00928777,0.00594814,0.00350198,0.00349259
-0.0153425,0.00600016,-0.0210341,0.00476433,0.00185779,0.00580275
-0.0292538,0.0156069,-0.0318357,0.00506727,0.00189847,0.00155425
0.00591052,0.0316007,-0.0328743,0.00214663,-0.00455898,0.000901222
0.00914991,0.0273376,-0.0253533,-0.00161861,-0.0120674,0.00390363
-0.00465678,0.0156132,-0.0167821,0.00586997,0.00293726,-0.00172877
0.0208877,0.0102456,-0.0209257,0.00367114,-0.00363067,-0.00393105
0.00175927,-0.00254144,-0.0112985,0.00367869,-0.00985247,0.00266075
-0.0119769,0.0113864,0.00672506,0.00433792,-0.0105978,-0.00502336
0.015851,0.00392547,0.0282467,0.000788331,0.00598595,0.00217676
0.00957664,0.011441,0.0474069,0.00902832,0.000982016,-0.00402367
0.017016,0.0114309,0.0442271,0.00122109,-0.00064981,-0.00336123
0.00948612,0.0220948,0.0313111,0.0026906,-0.00377268,-0.00147855
-0.0118842,0.0178215,0.0216422,0.006496,-0.00315812,0.00180936
0.0103182,0.0156188,-0.00711025,0.00447607,0.00597274,-0.000670195
0.016728,0.0102778,-0.00384448,-0.00241289,-0.00162414,-0.00691736
0.00182955,-0.00252076,0.000454152,0.00383931,0.000950962,-0.00280523
-0.00254531,-0.0239122,-0.0165166,0.0121511,-0.0133585,-0.00751615
-0.00463273,-0.0388503,-0.00788036,-0.00114307,0.0108315,-0.00988054
-0.0120893,-0.0473883,-0.00678457,0.00341302,0.000317842,-0.00656664
-0.0226796,-0.0452257,0.003847,0.00330555,4.63426e-05,-0.00142717
-0.0109334,-0.0324095,0.00701095,-0.00106445,-0.00328496,-0.00479639
-0.0088342,-0.0196043,0.000525943,0.00256507,0.00595805,-0.00299168
-0.00151566,-0.0185822,-0.0229602,0.00526869,0.000752985,-0.00157166
0.0059894,-0.0153702,-0.0154737,0.0017536,0.00012821,-0.00378287
-0.00462319,-0.00680605,-0.00915712,0.000340074,-0.00664338,-0.00132191
0.0103784,-0.00465674,0.00477523,0.0100091,0.00293159,-0.00357914
0.00394002,-0.0057335,-0.00272037,0.00732884,-0.00371498,-0.00808835
-0.0163884,-0.00574127,-0.016689,0.00636426,9.34899e-05,-0.00256407
-0.0184788,-0.00145665,-0.0103119,0.00714228,-0.00585467,-0.00131011
0.00286432,0.0124213,-0.00604803,0.00495383,0.00165758,0.000224352
0.020957,0.0209459,-0.0103095,0.00291827,-0.00122961,-0.00769985
0.00490528,0.0113258,-0.0209925,0.000268891,-0.00203347,-0.0146174
-0.00784208,-0.000402345,-0.0134836,0.00801659,-0.00633627,0.00194538
0.00924315,0.00920798,-0.00813983,0.00574008,-0.00897318,-0.00284505
0.00296921,0.00497578,0.0121639,-0.00248848,-0.00373167,-0.00347304
-0.0023809,-0.0014345,0.00897903,0.00539815,-0.00383779,-0.00535679
0.0146628,0.00175526,0.00795409,0.00412455,0.00583702,-0.00640678
0.00612671,-0.00892135,0.0069212,0.00157161,0.000641972,-0.00318825
0.000815646,-0.0142531,0.0101421,-0.00387178,0.00124875,-0.00248945
0.00190946,0.00391064,0.0132344,0.00331451,-0.00455502,0.00415802
-0.00661259,0.021006,0.0120239,-0.00347972,0.00131798,-0.00177836
0.0178153,0.00280756,0.000480879,0.00455736,0.00721842,-0.00343251
0.00392138,-0.00467095,-0.00593258,0.0048345,-0.00711715,-0.00795794
-0.00877626,-0.00570226,0.00898228,0.00107656,-0.00416026,0.0034709
-0.00779484,0.00495252,-0.00604084,0.00391392,-0.00253949,0.000316143
0.000797762,0.0135094,0.00462232,-0.00119142,-0.00143057,-0.00635374
0.001991,0.0135465,0.0259941,-0.00234622,0.0049184,-0.00113082
0.0115089,0.0231304,0.0131469,-0.00358364,0.00886366,-0.0084008
0.00939593,0.0210015,0.0163575,0.00264291,-0.00228161,-0.00170231
0.0233247,0.0210127,0.0292326,-0.00113641,-0.00409496,-0.00660157
0.00858276,0.0274847,0.0579807,0.00166209,-0.00739732,-0.00262237
0.0307838,0.00925974,0.0304033,0.00376661,0.00600979,-0.0125134
-0.0195924,-0.0335101,-0.0154524,0.00641264,-0.0105913,-0.00953484
-0.00999335,-0.0281758,-0.0143797,-0.00232662,-0.00050202,0.000501394
-0.00986974,-0.0238679,0.00589385,0.007533,-0.00211668,0.00283408
-0.00780482,-0.0153439,-0.00590776,0.000854224,0.00106445,-0.00682688
0.000733088,-0.0132092,-0.00375482,-0.0046349,-0.0026972,-0.010906
-0.0407863,-0.00462363,0.00137734,0.0052225,-0.000463426,0.00202394
-0.00673881,-0.00145975,-0.00706281,0.000811145,-0.000747174,0.00032711
-0.014277,-0.0068171,-0.0198785,0.00637694,-0.00581479,-0.00486052
-0.00789862,-0.0239153,-0.0208114,0.00520325,0.000296474,-0.00658512
-0.0120814,-0.0185485,-0.00804103,-0.000497639,-0.00403363,0.00119245
-0.00249058,0.00921366,-0.010322,0.00236195,-0.00147542,0.00160348
-0.0204036,0.0274414,0.0215483,0.00251292,0.00755364,-0.00802863
0.00826705,0.0348681,0.00451085,0.00277025,0.00911894,-0.00184608
0.0305006,0.0177205,-0.0177309,0.00644411,0.00329545,-0.0160189
-0.033367,0.00603958,-0.00614297,0.00575185,-0.00680351,-0.0120006
-0.00655353,-0.00140529,0.0239217,0.000777274,-0.003658,0.00407887
-0.00119647,0.00607495,0.0281683,0.00276017,0.000795752,-0.00185609
0.0251605,0.00597304,-0.0187443,-0.00247584,0.00689995,-0.00404596
-0.0162955,0.000692836,-0.00176964,0.00515616,-0.0108569,-0.00372934
-0.00546026,0.00287392,0.0281723,9.25064e-05,-0.000369787,-0.0098865
-0.00128975,-0.00142815,0.0132575,0.0013783,-3.27826e-07,-0.00207162
0.0039741,-0.00145136,0.00259413,-0.00280339,0.00798529,-0.00320148
0.00818286,0.0198912,-0.00821411,-0.00104821,-0.00678089,-0.000628948
0.0103774,0.0188394,0.00248673,0.000831664,0.001214,0.00107884
0.00499276,0.00707847,-0.00600495,0.00505289,-0.00449163,-0.00604951
0.00397238,0.00816114,0.00146203,-0.00302337,0.00125629,-0.00681245
0.00827138,0.0177803,0.00675941,-0.0065712,-0.000234395,-0.00654066
-0.0066855,0.00282771,0.00145765,0.00708926,-0.00339854,0.0054667
-0.00785858,-0.00788352,-0.0155719,0.00391306,-0.0065366,-0.00747561
-0.00670365,-0.0206742,0.000541142,0.0024665,-0.00289366,-0.00423837
-0.00562893,-0.0153329,0.0015805,0.00289245,-0.00506154,-0.00588143
-0.0194767,-0.00677644,0.00147203,0.000995517,0.000735074,-0.00678885
-0.00881235,-0.00144133,0.00254525,0.00649571,-0.00218907,-0.00234628
-0.0163306,-0.00572609,-0.00706945,-0.000779584,0.00266868,-0.00182581
-0.0185,-0.00573568,-0.0134882,0.00355859,0.00371081,-0.00169253
-0.00250075,0.00173466,-0.0113425,-0.000165388,-0.00741595,-0.00278616
-0.00245603,0.0145643,-0.00501511,-0.00201723,0.00112593,-0.00471163
0.00068263,0.0134763,-0.0146109,0.00298345,-0.00444394,-0.00327468
0.00288766,0.00815643,-0.00174754,0.00124608,-0.00351676,-0.0078162
-0.00452744,0.006039,0.0057169,-0.0019342,-0.00269854,-0.0036819
0.00399707,0.00603123,0.00575181,0.00249846,0.00444984,-0.000753522
0.00291071,0.0156386,0.00141108,0.00261305,0.000533193,-0.00530064
-0.00245336,0.0199052,-0.00504963,-0.00329863,0.00572473,-0.00782442
0.000702271,0.0145504,-0.0114132,-0.00142495,0.00125837,-0.00938702
-0.0088443,0.0113658,-0.00394851,-0.000651389,0.00629577,-0.00639403
0.0177397,0.0177379,-0.0135057,-0.00565401,-0.00806445,-0.00755739
0.00923564,0.0198865,-0.0103467,-0.00386387,-0.00413519,-0.00745869
-0.0140633,0.0242176,0.0130444,0.00128025,-0.00575131,-0.00304663
-0.0129787,0.0242233,0.0162518,0.00187609,-0.000917375,-0.00585759
0.00714231,0.0188315,-0.00393791,0.00365525,0.00227267,-0.000590563
0.0103049,0.0273631,-0.0103912,0.00273308,-0.00482276,-0.00767899
0.0104172,0.0220558,0.00887539,-0.00328532,0.0078133,-0.00523102
-0.00249912,0.0177555,-0.0125144,0.00778845,-0.00171199,0.00121725
0.0166337,0.0134548,-0.0198929,0.00196978,-0.00280389,-0.00787115
0.00495862,0.00279664,-0.0113201,0.00138718,-0.00401312,-0.00641489
-0.0056727,-0.000392624,-0.00706517,-0.0040082,-0.000708133,-0.00253356
-0.00983208,-0.0121076,0.0111582,0.0104302,-0.00487718,-0.00766706
0.00286815,-0.00573488,-0.00379216,0.00135374,-0.00107074,0.001683
0.145528,0.0208237,-0.0258674,-0.000703186,0.0100325,-0.002689
0.122062,0.0998693,-0.0371531,0.00527507,-0.00642595,0.00129819
0.0469266,0.0990092,0.0491148,-0.00328588,-0.00125632,0.00331736
0.0521785,0.0754866,0.0386017,0.00384817,0.00369954,-0.0129205
0.0606145,0.000690972,0.0305724,-0.00192723,0.00850576,0.0029726
0.0420871,-0.0207766,-0.0366704,0.0150605,-0.0167896,-0.0146796
0.0270839,-0.000497553,-0.0528851,0.00127071,0.0129683,-0.00848103
-0.00167897,0.0123421,-0.0530755,0.00665897,-0.0160568,-0.00176406
-0.0342768,0.0359898,0.0171675,-0.00847739,-0.0067364,-0.00389159
-0.0648219,0.0692258,0.0734653,-0.00715229,-0.00345832,0.00861013
-0.0503403,0.0541354,0.00203044,-0.00274459,0.00444305,0.00175714
0.0226301,-0.0261834,-0.0826514,0.0108491,0.00783095,-0.0162697
0.0328954,-0.11602,-0.139727,0.0115076,-0.00247926,-0.00942647
0.0574107,-0.125648,-0.137436,-0.0118394,-0.00575516,-0.0187676
0.0394703,-0.110632,-0.10982,0.00134355,-0.00638017,0.00394177
0.0165892,-0.0851296,-0.196616,-0.0155503,-0.000924706,-0.018132
0.0181592,-0.175766,-0.104136,0.000157177,0.00754583,0.00288832
0.0180544,-0.0914228,-0.129256,0.0148002,-0.0158998,-0.00120366
0.0256019,-0.0668367,-0.116567,-1.3411e-06,0.00843832,-0.016233
0.0130318,-0.10735,-0.0768187,-0.00874156,-0.00301898,-0.00355458
-0.0099449,-0.0591347,-0.00349446,0.00385475,-0.00842983,-0.00806379
-0.025564,-0.0216354,0.0539004,-0.0100977,-0.00127584,-0.00686431
-0.0197123,0.00414629,0.139231,0.00545636,0.0175884,0.00259101
0.0335301,0.0382741,0.130661,0.00509638,0.0271394,-0.00339651
0.0472394,0.0211328,0.108387,-0.00872445,0.0179958,-0.0178828
-0.00493924,0.0606994,0.110071,-0.0155947,-0.00264978,-0.0142539
-0.0751178,0.0340936,0.136692,0.0128226,0.00656608,-0.00961161
-0.121312,-0.0022947,0.0769217,0.00147977,0.00690702,-0.00827885
-0.0552184,-0.0568054,0.0871387,-0.0110326,0.00574246,-0.00149083
-0.0329479,-0.0632604,0.0701672,0.0363167,-0.0206942,-0.00112009
-0.0548844,-0.0791368,0.144981,0.0191658,-0.0200922,-0.00044179
-0.100713,-0.0748337,0.142645,0.0133404,-0.00792933,-0.00314164
-0.0344404,-0.0356158,-0.00373924,-0.00720221,0.0293486,0.000840187
0.0586016,-0.0156062,-0.126389,-0.0034834,0.00602558,0.00905383
-0.0539559,0.0337223,-0.0662303,-0.00591569,-0.0352068,0.00158155
-0.0274463,0.083864,-0.0921017,-0.00713232,0.00703561,0.00300181
0.000313582,0.0678382,-0.0812078,0.000982329,-0.0059236,-0.00900078
-0.0291677,0.0594198,-0.0214314,-0.00779369,-0.00533667,0.00281215
-0.0202205,0.0616728,0.0491052,0.000516415,-0.00244218,-0.00645089
0.0183399,0.0552947,0.0834811,-0.00311549,-0.000814259,-0.000969172
0.0512731,0.0498997,0.0676154,0.00029102,0.00345626,0.00151634
0.0563736,0.0434222,0.0302787,-0.000199616,-0.008775,-0.00663245
0.0275451,0.0274066,0.0217256,0.0247581,-0.0172494,-0.00757432
0.0126309,0.00819358,0.0239323,-0.00205892,0.00609398,-0.00713134
-0.00555237,-0.00249333,0.0132489,0.0025197,-0.00481862,-0.00483632
0.0115048,-0.0110486,0.0155064,0.00291523,0.00549328,-0.00320828
0.036046,-0.0067843,0.0209118,-0.00281274,-0.00483632,-0.0014714
0.0211521,-0.0110391,0.0251587,0.00472723,-0.0028545,0.00213587
-0.00752289,-0.0141946,0.0410996,0.00071688,-0.0100891,-0.00957274
-0.03609,-0.0183852,0.0752081,-0.0103283,-0.00775856,0.0170653
0.0223368,0.0231726,0.0420356,0.00180522,0.00545871,0.000629306
-0.0108723,0.0124642,0.0131345,-0.00522371,0.0126205,-0.016892
-0.00687293,-0.0143159,-0.0283478,0.0106166,0.0111141,-0.00700951
0.00804769,-0.0207344,-0.0271819,0.00259271,-0.00174159,-0.00432515
-0.011142,-0.0281989,-0.0282744,-0.00515044,-0.00730804,-0.000760555
-0.0301389,-0.00783829,0.000370072,-0.00895461,-0.000893146,-0.00411773
0.00937644,0.0199265,0.0131616,0.00192302,0.00114456,0.00877452
-0.00759127,0.0285082,0.0258618,0.00206751,-0.0103268,-0.00680399
-0.00462155,0.0220312,-0.0114804,0.0147598,0.00433716,-0.00667226
0.000599639,0.000635045,-0.0273482,-0.00178529,-0.00291571,-0.0072782
-0.0131457,-0.0164121,-0.00805716,0.00760841,-0.0118484,-0.0122437
-0.0662156,-0.0120396,0.0259059,0.00391816,-0.0181024,-0.00617111
-0.0845176,-0.00460477,-0.00626386,-0.00020887,-0.00123847,-0.00616872
-0.0481975,-0.0505306,0.0134017,0.00507081,0.0296571,-0.00166345
-0.0276425,-0.0312303,0.0635699,-0.0106529,-0.000956446,0.00158215
-0.0266017,0.0339106,0.0535383,-0.0197027,-0.0102764,-7.03335e-05
-0.080762,0.0660474,0.080903,-0.0243348,-0.000761122,0.00437617
-0.0718658,0.00420257,0.148651,-0.0189782,-0.00264889,0.00679874
0.0423352,-0.0396179,0.184623,0.0205773,-0.015723,0.0121412
0.0836383,-0.0461304,0.143149,0.0123063,-0.0147741,-0.0159612
0.0644868,-0.0635084,-0.0288297,-0.00571954,-0.0261048,-0.00777388
-0.0234136,-0.0945691,-0.114434,-0.00800583,-0.0278453,-0.0109713
0.05774,-0.157595,-0.0795296,0.0163583,-0.00396645,0.0104183
0.0285801,-0.107488,-0.149414,-0.0172592,-0.00959069,0.011003
0.0148971,-0.0123735,-0.129781,-0.00935586,0.0105378,0.000178337
0.116856,0.0387179,-0.189562,0.0097698,0.0270749,0.00174022
0.0878993,0.00984923,-0.218334,0.0357335,0.0199033,-0.0157459
0.100307,-0.0201767,-0.278993,-0.00281976,0.0158813,-0.0122502
0.23921,-0.107748,-0.206319,-0.00767908,0.00550875,-0.00121403
0.0544438,0.0655988,-0.116248,0.0249484,-0.0303668,-0.0365674
-0.0221414,0.089193,-0.096389,-0.0151038,0.0289231,0.00664616
-0.0267883,0.138215,-0.165107,0.0249013,-0.00342223,-0.00230026
-0.0809011,0.149001,-0.127981,-0.000499308,0.00861493,-0.0051713
0.0227159,0.0176309,-0.0722501,-0.00698227,0.0143741,0.000849009
0.113581,-0.0442975,-0.0170168,0.0159016,-0.019476,-0.00228763
0.0404051,-0.0174398,0.0380928,0.0149407,-0.0273059,-0.0043776
0.0189998,0.0103167,0.0196707,0.00623336,0.0046311,0.00590873
0.0838217,0.043327,-0.0123561,0.00399342,0.0026505,-0.0014894
0.0785496,0.00062497,0.000723854,0.0129704,-0.00883707,-0.000810981
0.0615085,-0.0869391,0.00977502,0.00395942,-0.0132188,-0.0173881
0.0768175,-0.122081,0.0784411,0.000480473,0.00944352,-0.0103103
0.0419214,-0.0365349,0.115153,-0.0321258,0.00356346,-0.0184898
0.0308611,-0.00246683,0.0443709,-0.0263741,0.0369782,-0.00564885
-0.0293339,-0.0303439,-0.0411504,-0.000142977,-0.00879619,-0.0224789
-0.0158403,-0.044344,-0.0997723,0.00804844,0.0145735,-0.0347838
0.0406334,-0.0305019,-0.100719,-0.0303311,0.0187414,-0.024447
-0.0299739,-0.00992594,0.0281633,-0.0280038,-0.0129786,0.0364916
0.00348284,0.124745,0.0872509,-0.00956643,-0.00250173,-0.00917315
0.00352107,0.0606745,0.0994181,0.00820452,-0.0120258,-0.00673199
-0.0189364,0.0382379,0.0877283,-0.010807,0.00612381,-0.00687599
0.0577129,0.0798146,0.0727858,0.00283533,-0.00248393,0.00790477
0.0903183,0.135204,-0.00331146,0.00401846,8.15988e-05,-0.00755
0.00560076,0.0635502,-0.0875708,0.0309402,-0.0098483,-0.015044
-0.0575292,-0.0422156,-0.12238,0.0114841,-0.00527567,-0.00853229
0.0289707,-0.00377546,-0.0934559,-0.00275248,0.0238924,0.00772858
-0.0251111,0.0187709,-0.0521368,-0.00689393,-0.016095,-0.00767088
0.0314297,-0.0763073,-0.0320764,0.0452543,-0.00729048,-0.0149419
-0.0245644,-0.038745,0.044401,-0.0106857,-0.014537,-0.00767589
-0.081771,0.0126624,0.0951359,-0.0153769,-0.0218599,0.0154195
-0.100708,0.0501281,0.132219,0.0182537,-0.0130991,-0.013472
-0.0803601,0.0512107,0.149384,0.0244997,0.0426381,0.0129266
0.143049,-0.0753996,-0.0754703,-0.0099445,0.0262755,-0.00379121
-0.00188142,-0.0603433,-0.0803852,-0.00573832,-0.0279271,-0.0230565
-0.14685,-0.0353755,0.0855901,0.0231622,-0.0255158,0.0179491
0.00924696,0.00386843,-0.0070358,-0.0346603,0.0223347,0.00515103
0.0305085,0.00811049,-0.0155317,-0.00213733,-0.00166658,-0.0200012
-0.076563,0.00301019,0.0759878,-0.00269315,-0.00588739,0.00735056
0.0235053,-0.0141802,0.062584,-0.00388244,0.0224791,0.00815761
0.0318286,0.0060481,0.0272241,-2.57194e-05,-0.00883582,-0.0135682
-0.0171037,0.00397247,0.0409447,0.00421262,-0.00605452,-0.00913143
-0.00234906,0.0103209,0.0131815,0.00681981,0.00787646,-0.00744057
-0.00772002,-0.0249321,0.00911433,0.0147643,-0.0194818,-0.0197908
-0.0758293,-0.0472849,0.0250305,-0.00444175,-0.00597319,-0.00420654
-0.0226938,0.00283104,-0.00287354,-0.00313355,0.00028336,0.00217235
0.00589425,0.0497513,-0.0372631,0.00249229,0.00135991,0.00312316
-0.00288396,0.0016213,-0.0754469,0.00771323,-0.00411803,-0.00818789
-0.0677111,-0.0410008,-0.0433619,0.00968185,-0.0121548,-0.000319719
-0.0186257,-0.0143167,-0.0337335,-0.00495324,0.00577283,0.00211859
0.0155474,0.0102451,-0.0230808,-0.00841334,-0.000193864,-0.0114
-0.0162332,-0.00249319,0.00893592,0.00829294,-0.0027689,-0.00442672
0.015663,-0.0271023,-0.000401313,-0.0199717,0.00527668,-0.0154918
-0.00764875,-0.00995825,0.0197009,-0.00112203,-0.0121948,-0.00719237
0.00617235,0.0049744,0.0132461,0.00226693,0.00689942,-0.00335288
0.0134851,-0.00575392,-0.0101633,0.00358373,0.00135222,-0.0107431
-0.00462627,-0.0260323,-0.00796269,-0.0093326,-0.00562069,-0.0100338
-0.0415997,-0.0248433,0.0453143,0.0220712,-0.00430632,0.000927925
0.0422695,-0.0399495,-0.00448915,0.00863497,0.0317934,-0.0109652
0.00570325,-0.0261364,-0.062412,-0.0288373,-0.0159696,-0.000163078
-0.0480408,0.0200052,0.0332463,-0.00406334,-0.0149709,0.0130153
0.0137131,0.0669388,0.0214206,0.00196511,0.0119486,-0.00735462
0.0274457,-0.00573279,0.00805287,-0.00364865,-0.00635049,-0.00527418
-0.0290945,0.0135144,-0.00510434,0.0153354,-0.00721148,-0.0129677
-0.0152794,-0.00893525,-0.00918151,0.00487241,0.00306001,-0.00319803
-0.00358936,-0.019634,-0.0133409,-0.00414445,0.000257015,-0.00491929
-0.0236779,-0.0131646,0.012184,0.00130597,-0.00457966,0.00404322
-0.00338272,-0.00248503,0.0196704,-0.00325161,-0.000964195,0.00138235
-0.000131815,0.00393674,0.0281883,-0.00410588,0.00239345,-0.0044837
-0.0321447,0.0124917,0.0194645,0.00165482,-0.00819367,-0.00782323
-0.0311063,-0.0291705,0.0186702,0.00375976,0.00555506,0.00280309
0.00927366,-0.0580704,0.00298271,-0.00227168,0.00558326,-0.0128627
-0.00887124,-0.0174804,-0.00589591,-0.00456801,-0.00523233,-0.00394201
-0.0131492,0.00174212,-0.0103088,-0.00433484,0.000503272,0.00355339
-0.00991761,0.00815896,-0.00499772,0.0103686,0.00522217,-0.00659454
0.0135037,-0.0452659,-0.00349631,-0.00515063,-0.00286594,-0.00330544
-0.00560495,-0.00571362,0.00472366,-0.00309369,-0.00789198,0.00223887
-0.0193706,0.0135466,0.0173686,-0.00483283,0.00373837,0.00677729
0.0115268,-0.00570297,0.0186793,0.00702734,0.00780353,-0.000305176
0.0221282,-0.0110662,0.0102048,0.00250714,-0.00581717,-0.00965834
-0.0184072,-0.0121177,0.00258196,0.00034672,-0.0061017,-0.00206804
-0.00444662,-0.0120963,0.0207975,0.00293697,0.00622794,0.00122738
-0.0330978,-0.00563155,0.0398795,-0.024912,0.00891644,0.00361109
-0.0119955,-0.000367812,0.00466497,-0.0094185,-0.00896445,0.00896335
0.00596306,0.0465667,-0.0254881,0.00873508,-0.021076,-0.00454545
-0.00456397,0.00923124,-0.000712161,0.00269754,-0.0118161,-0.00442815
0.0473893,-0.0336049,-0.0397719,0.000208467,0.0170096,-0.02595
-0.0431377,-0.0751779,-0.0291568,0.0095747,0.00277212,-0.00517941
-0.012305,-0.0314309,-0.0442841,-0.00792012,0.00483319,0.00596607
0.0124765,0.00601206,-0.00169603,-0.00405748,-0.0070143,0.00580049
0.0137221,0.0210161,0.0270598,0.000792772,-0.00133446,0.00292993
0.00187097,-0.0228037,0.00913805,0.00574325,-0.000916481,-0.0161495
-0.0119624,-0.0366716,0.0134484,-0.010766,0.00866792,-0.00380278
0.0459119,0.00823988,0.0657296,-0.00576323,0.0117963,0.0276527
0.074157,0.0721487,-0.027536,0.00365585,-0.00897896,-0.026922
-0.00480038,0.0604277,-0.0448504,0.004428,-0.00433412,-0.00575805
-0.00487397,0.0283656,-0.0542599,0.0142042,0.00191224,-0.0114985
-0.00568056,-0.0676821,-0.00235368,-0.00953066,-0.0071466,0.00174689
-0.0442523,-0.00683668,-0.0434945,-0.0139766,-0.0220283,-0.0253521
-0.126756,0.0446685,0.0530917,0.0155176,0.0158115,0.000492811
0.103922,-0.107325,-0.0230551,0.0202524,0.0360271,0.011553
0.0889077,-0.0443272,-0.0448894,-0.0471478,-0.0489232,-0.00732791
-0.0614016,0.00520601,0.116632,0.00208521,-0.0328987,0.0178877
-0.0148969,0.0403055,0.0503351,-0.00702231,0.0255047,-0.0276499
0.0167442,-0.0473926,0.00401075,0.0144987,0.0053474,-0.000240326
0.0250771,-0.0720192,-0.0257159,0.00884107,-0.00909477,0.00743413
0.0238858,-0.0421497,-0.0494205,0.0116704,-0.0134637,-0.00687146
-0.00462562,-0.0377812,-0.00681673,-0.000125557,-0.00407448,-0.00782561
0.0315251,-0.0132654,-0.0217998,0.0046218,0.00147343,-0.00719833
0.00909899,-0.0111278,-0.0304438,0.00256509,-0.00582933,0.00344586
-0.00892191,-0.0036103,-0.0156028,-0.00098823,-0.000462204,-0.000790358
0.0187957,-0.00149073,-0.0133764,0.00492786,0.00664794,-0.00748706
-0.00975569,-0.000338118,0.0228376,-0.00264245,-0.00365376,-0.00255311
-0.0044418,0.0103338,0.0195839,0.00292785,0.00753805,-0.00281715
-0.029233,0.043379,-0.0309411,0.0032758,0.00505558,-0.00787854
-0.0516966,0.00919382,-0.0425582,-0.000897586,0.00171864,-0.0136073
-0.0387909,-0.0335025,-0.0187271,0.0147498,-0.00508589,0.00532532
-0.00567004,-0.0463175,-0.00249368,-0.0148398,0.00214076,-0.000403404
-0.000278438,0.0177793,0.00245352,-0.0107615,-0.00684536,-0.000484824
-0.0257637,0.0520006,0.0138904,-0.00193176,-0.00608158,0.00183654
-0.0141426,0.0188542,0.000257649,0.00459722,0.00546256,-0.012614
-0.0110435,-0.02283,-0.012282,0.00194381,0.00428545,-0.00541961
-0.00682558,-0.0217781,-0.0197522,0.00165409,-0.00366509,0.000579596
0.0294179,-0.00364425,-0.0186653,0.00268516,-0.00160319,-0.00566578
-0.00464268,0.00493543,-0.0135046,-0.000506178,-0.0156447,-0.020877
0.00838658,-0.00781983,0.0282965,-0.000218689,0.0108281,-0.00790858
0.0167829,-0.00786315,0.0069585,-0.00574033,-0.000975758,0.00416255
-0.0120428,0.0327273,-0.00623371,-0.00764167,-0.00651002,0.000776291
0.0203652,0.0221519,0.0687475,0.00974423,0.0102091,0.00166917
0.0146784,0.0199156,0.00890664,-0.0117607,-0.00274822,-0.0120518
-0.00245611,0.000677212,-0.0038514,0.00602964,-0.0342075,0.00347435
-0.0148623,-0.00560971,0.0602481,0.0123338,0.00618804,0.0034771
-0.00670663,-0.00145163,-0.00171794,-0.00061968,0.00579265,-0.0210918
0.0133723,-0.0271484,-0.0271184,0.0171335,-0.000359714,-0.0120339
0.00159656,-0.0218151,-0.0368138,-0.0279765,0.00635621,0.00342155
0.00813677,0.0294887,-0.0168213,0.0137436,-0.0116436,-0.00180006
0.00297093,0.00817974,0.0121444,0.00251968,-0.00250098,-0.00321269
0.0604484,-0.024991,0.00509673,-0.00535403,0.0172223,-0.00732923
0.00481122,-0.0239481,-0.0335831,-0.00712556,-0.0207605,-0.00592732
-0.0738697,-0.00675132,-0.00727786,-0.000879779,-0.00842831,-0.00881052
-0.0610418,0.0509251,-0.00546653,0.00734723,-0.00439128,0.00380814
0.0243998,0.00178988,0.0325669,0.0282647,0.0181065,0.00376892
0.0506616,-0.0485382,-0.0257721,-0.0627366,0.00561753,0.000276804
-0.00438017,0.018897,0.0291429,0.0189085,-0.0153416,-0.00324035
0.00102891,0.015713,0.0430728,-0.00818807,0.00492027,-0.0104663
0.0171995,-0.0312386,0.0786978,0.0086652,-0.01477,-0.00132477
-0.0476789,0.0542898,0.0907181,-0.00218457,0.00240505,0.00453448
0.0393162,0.0765408,0.025728,0.013056,0.0410265,-0.0103271
-0.0191646,-0.0571962,-0.12,-0.0240477,-0.0239723,-0.00462198
-0.135542,0.0211012,0.0115437,0.0200777,-0.0347659,-0.00337279
-0.0914285,0.0810022,0.0775656,0.00491926,0.00379562,0.0168943
0.146464,-0.0732027,-0.0391434,-0.0129103,0.0204776,-0.0193641
0.0544986,-0.0807062,-0.0939305,0.00715907,-0.0314739,0.00022769
-0.0120702,-0.0217496,-0.00588276,-0.0139637,0.00649467,-0.000807285
0.0654068,0.00373523,-0.0591797,0.00139888,0.0152106,-0.0165623
0.0304974,-0.0655878,-0.0107792,-0.00512318,-0.0317009,-0.00252283
-0.0332453,-0.0323758,0.0176155,-0.000126302,-0.0155372,-0.00128949
-0.00249674,0.00921056,-0.0113878,-0.0164066,0.00384441,0.00267839
0.0272412,-0.0314256,-0.0238344,0.00415692,-0.00525478,-0.0123308
-0.00791178,-0.0634374,-0.019485,0.0059007,0.00310248,-0.00352299
0.0439344,-0.0518346,-0.0813359,0.0042173,0.0229086,-0.00214791
0.0799834,-0.0903629,-0.107663,0.00312603,0.00225902,-0.00486541
-0.024062,-0.0527937,-0.0484627,-0.0081982,-0.0336417,-0.0060041
-0.0543061,0.00723054,0.0557438,0.00865477,0.000895858,0.0140758
0.11148,-0.0218572,-0.0139671,0.00897768,0.035907,-0.00518346
0.054799,-0.00371971,-0.0506224,-0.0118457,-0.00310037,-0.0198035
-0.0982922,0.0477614,0.00189393,0.0174528,-0.0122631,-0.00115514
-0.0217727,0.0465783,-0.0309347,0.0220167,0.026733,0.000181079
0.0674986,-0.0368639,-0.0621128,-0.0134474,0.015267,-0.00870681
-0.0154403,0.0529642,-0.0416371,-0.0273308,-0.0340663,-0.00647581
-0.120536,0.185595,0.0116,0.0259819,-0.0146735,0.00119209
-0.106177,0.142699,-0.0778173,0.0193816,0.0271341,-0.0140979
-0.0582942,-0.0125327,-0.252928,0.0272785,-0.00406992,0.00359166
-0.0016686,-0.0403003,-0.224754,-0.00793682,0.00501585,-0.0126547
-0.085289,0.0763416,-0.142485,-0.0278252,-0.0333874,0.0234966
-0.010385,0.156792,0.0816493,-0.0129943,-0.0221659,0.000579238
0.0972341,0.132147,0.0843484,0.011093,-0.00991803,-0.000459671
0.105889,0.0232383,0.116072,0.00870383,0.0354364,-0.00724375
0.093054,-0.0878422,0.117812,-0.00183532,0.000450402,-0.0284796
-0.10864,-0.0525366,0.0623389,-0.0371168,-0.0431601,-0.023155
-0.314233,0.0269805,0.24162,-0.0687683,-0.00280318,-0.0330989
-0.175865,0.0706218,0.213008,-0.00789922,0.0175341,0.0195434
-0.022211,0.0577536,0.251062,0.0322384,-0.0018355,0.0285248
0.107331,0.0212105,0.179131,0.0311403,0.0436423,0.0222602
0.144949,-0.00359898,0.0576286,-0.0206053,0.0364796,-0.0191393
0.0756864,0.028494,0.053954,-0.0215685,-0.0263528,-0.00957978
0.0388535,0.0938066,0.124979,-0.0123076,-0.0251632,-0.00166106
0.0209244,0.118439,0.1536,3.48985e-05,-0.024494,-0.00485373
-0.00424853,0.0648606,0.0470099,0.0704417,-0.0212402,-0.00110793
-0.110211,-0.106086,-0.0174525,0.0417201,1.06692e-05,-0.00138938
-0.114831,-0.0923015,-0.0784624,-0.0133943,0.0273002,-0.00557494
-0.0818743,-0.0122455,-0.0980897,-0.00836888,0.00623867,-0.0165035
-0.111518,0.0113291,-0.0684363,0.000876382,-0.0101111,-0.000645518
-0.0736781,0.0445712,0.0201682,-0.0027345,0.00978884,0.000532627
-0.125955,0.00186898,0.0127714,0.0127181,-0.04243,-9.20296e-05
-0.15722,0.0619075,0.124452,-0.0197505,-0.0162531,0.00453162
-0.105693,0.0587766,0.188772,-0.0157739,0.00665927,0.00729191
-0.0961487,0.120702,0.175585,-0.0115685,-0.0208524,-0.0103431
-0.116108,0.0908944,0.225923,0.0152344,-0.000578821,-0.00419641
-0.0759383,0.0640709,0.174959,-0.0244077,-0.000153244,-0.00897312
-0.0983841,0.116401,0.15851,-0.00258657,-0.0187622,-0.0127243
0.0175536,0.0382874,0.13167,0.00812155,0.0223006,0.0203512
0.0664766,-0.00449846,0.12038,0.00433636,-0.00308436,-0.0186349
0.0470824,-0.0120228,0.085097,-0.0107846,-0.0105755,-0.00429559
0.0274792,-0.0281518,0.0156775,-0.0107698,-0.0361626,-0.0127745
-0.0130947,-0.0548463,0.0039446,0.0145243,0.00528723,0.0265267
0.121927,-0.0550358,-0.0457648,0.00845197,0.00699234,-0.00150275
0.0927044,-0.0679638,-0.12058,-0.01758,-0.00257191,0.00903678
0.0348466,-0.0284956,-0.177682,-0.0261542,-0.0301511,0.0125351
0.0874822,0.015378,-0.110456,0.0173278,0.0210947,-0.0181555
0.110254,-0.0072638,-0.220273,0.0108685,-0.0191182,0.0145311
0.0512719,-0.0479146,-0.280066,-0.00631842,-0.0199007,-0.0177357
0.131263,-0.138736,-0.258876,0.0147444,0.0227623,0.0054518
0.191625,-0.168795,-0.318288,-0.021674,-0.00898609,-0.000799179
0.118178,-0.174059,-0.305708,-0.0137515,-0.0291595,-0.0259967
-0.0374025,-0.148313,-0.310731,-0.0209012,-0.0511394,-0.00299096
-0.0875025,-0.0507779,-0.144874,-0.0284889,0.0134126,0.0345961
-0.00326048,0.0666616,-0.14425,0.0372878,-0.00160342,-0.000834703
0.0465816,0.00919263,-0.000519842,0.021838,0.0595223,-0.0384265
-0.0769299,-0.0408865,0.0185751,0.0514418,0.0264089,0.0126952
-0.0234487,0.0587729,0.222202,0.00134392,0.0990334,-0.0331149
0.110192,0.178423,0.287104,0.0481812,0.0411465,0.0189469
0.172926,0.195428,0.263719,0.0166462,0.0353332,-0.00721121
0.126488,0.193144,0.159922,-0.0476471,0.00187123,-0.0259744
0.0537343,0.109805,0.117453,0.000740081,-0.0448862,-0.00827098
-0.0603532,0.0607386,0.108796,-0.0343459,-0.023673,0.0194228
-0.0796081,0.156543,-0.0906289,-0.0273682,-0.054142,-0.0343485
-0.149665,0.0156926,-0.0333497,-0.0274411,-0.0234787,0.0141673
-0.115858,0.00735021,0.0971807,-0.0388157,-0.0273266,-0.0127958
-0.0222051,0.0990983,0.0702246,0.0175709,-0.0192517,0.00733662
-0.0116056,0.115094,0.0594769,-0.0229734,0.0098612,-0.0151434
0.0106427,0.0125083,0.0474041,0.0117162,0.00492382,0.0118228
-0.0360643,-0.00556222,0.0783324,0.0323388,0.000231415,-0.00962603
0.0115741,0.0381011,0.0226679,0.0138252,0.0336273,0.00734365
0.12781,-0.0402376,-0.132382,0.0106238,0.0226187,-0.0143917
0.0243569,-0.119222,-0.141874,0.0192493,-0.00927764,-0.0156031
-0.00413703,-0.182135,-0.0902874,-0.0115388,-0.00628516,-0.0157866
-0.000264032,-0.171259,0.0218432,0.00632134,-0.00420728,-0.00960219
0.0204162,-0.144447,0.0922648,-0.00430191,0.0163164,-0.00431156
0.0412459,-0.0324593,0.00186743,-0.0172396,0.01269,-0.00453603
0.100458,-0.0401139,-0.0737209,-0.013224,-0.0064151,0.00849509
0.0407122,0.0122426,-0.0913793,-0.0121792,-0.0240891,-0.00321186
0.0250234,0.0251562,-0.0434405,-0.0223813,0.00373948,-0.0128884
0.016191,0.0229381,-0.0947476,-0.0460568,-0.0234656,-0.00515819
-0.0663496,0.0776352,-0.00458982,0.00411838,-0.0253548,-0.0161724
-0.0896635,0.0520571,0.0189946,0.0250871,0.00300726,0.00604081
0.0298694,-0.0561585,-0.116619,0.0318243,0.01853,0.000948191
0.025659,-0.17042,-0.0977303,0.0143206,-0.0216334,-0.0154783
-0.0580102,-0.113604,-0.0182768,0.0256777,-0.0304942,-0.00244653
-0.0543968,-0.0846464,0.0488584,-0.00529736,-0.00575933,0.0061295
-0.0195537,-0.00786812,-0.0113402,-0.0244818,0.0122133,0.0159695
-0.00266944,0.0476103,-0.0436923,0.00961587,0.0100353,0.003093
-0.00676533,0.0348452,-0.0147761,0.00815687,-0.00584662,-0.00955439
0.0147812,0.00819727,0.0271463,0.000155836,-0.00798771,-0.0121701
-0.00857091,-0.00457592,0.0431693,-0.00568977,-0.00785917,-0.000410795
-0.0212954,-0.008821,0.0538348,-0.002597,-0.00911251,-0.00143552
-0.0352609,-0.0312719,0.0368317,-0.000103831,-0.0038543,-0.000581741
-0.0182992,-0.0644191,0.0253569,-0.000456229,-0.0030933,-0.000368714
-0.0439785,-0.0601588,0.00706942,0.00336961,0.00104007,0.00439262
-0.00449838,-0.000362398,0.0111041,-0.00927365,0.0229934,-0.00955164
0.0272401,0.00488736,-0.027275,0.00228243,-0.0182535,0.014968
-0.0516502,-0.0644879,-0.0281892,-0.0160618,-0.00357395,-0.00892448
-0.0109954,-0.0548578,-0.00138837,0.00173104,-0.00161996,-0.00210071
0.0425449,-0.0388012,0.0414479,-0.00282817,-0.00191966,-0.0125194
0.048938,-0.0516221,0.0426226,0.00843942,-0.00200981,-0.0176239
0.0188385,-0.00575126,-0.00586774,-0.00122318,0.00525999,0.00209999
0.00277124,-0.00789936,-0.0198049,0.00704116,-0.00162008,-0.00284863
-0.004794,0.0219802,-0.0403275,-0.00188056,-0.0119853,-0.00543308
0.001719,0.00598995,-0.0188308,-0.00312661,0.00902906,-0.0044049
-0.00890687,0.013482,-0.0146437,-0.00859872,0.000734806,0.00102174
0.0358921,0.0433681,-0.00932943,-0.00891377,-0.00300691,0.0070473
0.0422966,0.040162,-0.00714691,-0.00627413,-0.00539494,-0.0100477
0.0296534,0.00710453,0.0197306,0.00268376,-0.00239787,-0.012386
0.0520702,0.0113711,0.0261988,0.0011142,0.000477642,-0.00527596
-0.00896238,0.0433715,-0.026592,0.0145944,-0.0144415,-0.00903738
0.0655091,0.0422144,-0.0455388,-0.0106137,0.0150478,-0.00231028
0.0314271,0.0208829,-0.0412529,0.00993703,-0.0010643,-0.00769114
-0.000502485,0.0038284,-0.0337819,0.00410859,0.00929299,-0.0123632
0.00382568,-0.0175163,-0.020806,-0.0022496,-0.00902265,-0.0122657
-0.0087334,-0.0355962,0.0187952,-0.00873657,-0.00337693,-0.00841689
-0.0204323,-0.017425,0.0207717,-0.00449753,-0.00347,-0.0055604
0.0093317,-0.0185359,0.00913708,-0.00347586,-0.00102136,-0.00466895
0.00296563,-0.0281353,0.0145172,-0.00328805,-0.00494167,-0.00731897
0.000790895,-0.0260104,0.0070161,-0.00346191,-0.00116351,-0.00456607
0.0103761,-0.0228162,0.00596577,-0.00914448,0.00191343,0.000843763
0.00414085,-0.0131514,0.0315192,0.003731,-0.00984883,-0.000152707
0.00926941,-0.0153501,-0.00156801,-0.0016221,0.0128461,-0.0100449
0.00912076,-0.0185973,-0.0261224,-0.0076157,-0.00350499,0.000680327
-0.0142693,-0.0174964,-0.01767,0.00575317,0.000614792,-0.0114923
0.0273423,-0.00789861,-0.0090295,0.00895353,0.0139157,-0.0177758
0.00285901,-0.0110772,-0.00482705,-0.00960471,-0.00153202,-0.00274444
-0.0227074,-0.0110559,-0.00385503,0.00546138,-0.00665775,-0.00446463
-0.00885064,-0.00145287,-0.00386475,0.000498921,-0.00679037,-0.00309956
-0.000332168,-0.000393379,-0.00490723,-0.00353439,0.00755146,-0.00537133
-0.00024281,-0.000366614,0.0100498,0.000283942,-0.000356555,-0.000477076
-0.0247111,0.000730697,0.0163627,5.03212e-05,-0.0100007,-0.00540352
-0.0172997,-0.0174456,0.0100982,0.00155994,0.00203511,-0.00335324
-0.000253837,-0.00998307,0.00904545,-0.00586183,0.00278118,-0.00595307
0.00295917,-0.00250385,0.0111447,-0.00257158,-0.00327396,-0.00310445
0.000770123,0.00922884,0.000376844,-0.00286344,0.00395119,-0.00503898
0.0177652,0.0177458,-0.00923277,-0.00349334,0.00767237,-0.00854015
0.0315629,0.0241268,-0.0188364,-0.00410712,-0.00298882,-0.00725114
0.0209764,0.0209503,-0.0071016,-0.000971019,0.000653684,-0.00566411
-0.020324,0.0199872,0.0354893,0.000314191,-0.00701725,-0.00694394
0.0285059,0.00921739,0.00582301,0.00225036,0.00955519,-0.0199808
-0.0067818,-0.0110855,-0.0134095,-0.00527693,-0.00444072,-0.0162055
-0.00884894,0.0145676,-0.00503594,-0.00421658,0.00148913,-9.20296e-05
0.00933854,0.00816749,0.00789457,0.013815,0.0103056,-0.00364172
-0.0109732,0.00282341,-0.00283207,-0.00541681,-0.00395316,-0.00135565
0.00395362,-0.00466314,-0.000587048,0.00199176,-0.000367731,-0.000743628
0.00931412,0.010296,0.00360773,-0.00228843,-0.00383675,-0.00426328
-0.00767569,-0.000354985,0.0142987,0.000745595,0.00364515,-0.00256419
-0.0184147,-0.0142553,0.00152592,0.00295058,-0.0086059,-0.000926971
-0.0226948,-0.0249388,-0.000555452,0.0084056,-0.0062221,0.000135422
-0.00461168,-0.0100087,-0.00699562,0.000632122,-0.0128789,-0.0112064
-0.0386433,-0.0195758,0.00469069,0.00252567,-0.000757545,-0.00788689
0.0253163,0.0102891,0.00687408,-0.00728625,0.00931209,0.0053122
0.0166323,0.0358819,-0.0221725,-0.000522658,-0.00385857,-0.00177395
0.0368752,0.0187775,-0.0209175,0.000495553,0.00802338,-0.0111709
0.0840027,-0.0559501,0.0267571,0.00100031,-0.0114416,-0.0128572
0.00747349,0.0157217,0.0516475,-0.0014277,-0.014499,-0.00657654
-0.0989162,0.0489589,0.0756071,-0.00821394,0.000320882,-0.00620449
-0.130852,0.0575356,0.0797062,-0.00981238,0.00523636,-8.7738e-05
-0.0576027,0.0627411,0.0340039,0.00338024,-0.00270286,0.0131786
-0.0172538,0.0744183,0.00950422,-0.00528534,0.00982684,-0.00340509
0.00282748,0.0786264,-0.0182253,0.00920391,0.00562003,-0.000230074
-0.0205361,-0.0206599,0.00369811,0.0167232,-0.0046815,-0.00810456
0.0230901,-0.0527523,-0.00340789,-0.0114917,-0.0107371,0.00426221
0.0541045,0.00920421,0.0101959,0.00500584,0.0100184,-0.00484085
-0.00724995,-0.0952872,0.0939829,-0.0226774,-0.0183268,-0.019316
-0.0013812,-0.0994052,0.184849,-0.0260851,-0.0321279,-0.0195112
-0.0634729,0.0183509,0.303522,0.011521,-0.00429311,0.00505662
-0.024115,0.0514124,0.289562,-0.0268924,0.0193882,0.0135014
-0.0037355,0.0642517,0.310927,0.00502416,-0.00791356,0.0256367
0.019017,0.0789852,0.194456,0.015635,0.0226849,0.00290871
0.122786,0.0292763,-0.087974,-0.000678539,0.0249845,-0.0198271
0.005271,-0.060441,-0.131638,0.0395327,-0.021635,-0.00680792
-0.104429,-0.0496639,-0.124639,-0.00867611,-0.0110261,-0.00751829
0.0519014,-0.05521,-0.174234,0.000475854,0.0288153,0.00773501
0.0739116,-0.0200883,-0.238486,-0.0137839,0.0160307,-0.0164235
-0.0245781,0.013271,-0.140773,-0.0316558,-0.0183933,-0.00301826
-0.0330383,0.087303,0.0414183,0.0195869,0.00138751,0.00611818
0.0131477,0.146118,0.0978389,0.0046346,0.0102324,-0.00269067
0.0122841,0.140837,0.132061,0.0261919,-0.00478896,-0.0193775
-0.0527986,0.0725068,0.123711,0.0459682,-0.00875992,-0.0289285
-0.0580729,-0.0898162,0.147183,0.00636585,0.00754324,0.000295281
0.00768252,-0.0269403,0.0903918,-0.0166075,-0.0119752,-0.000332236
-0.00724873,0.0606459,0.0801523,0.00664845,0.0184369,0.0265892
0.00403708,-0.0302738,0.0156102,-0.0116584,-0.00305256,-0.0218457
-0.0198772,0.0219406,-0.0681583,0.00445716,-0.0117751,-0.0120387
0.10506,-0.0272049,-0.0182215,-0.0278524,0.0730085,0.0444866
0.216175,-0.0114908,-0.147191,-0.0201949,-0.0368114,-0.0437932
0.0334154,0.00268058,-0.0635601,0.01291,-0.0193533,0.0115945
-0.0123464,0.025159,-0.0563958,-0.0159991,-0.00816023,-0.0218186
-0.0444263,0.052919,-0.0780655,-0.0090088,0.0131766,-0.00540185
-0.0724743,0.0421595,-0.134729,-0.00435248,0.00327212,-0.0226538
-0.143395,-0.0794072,-0.0455237,-0.00507742,-0.0139213,-0.0202892
-0.138384,-0.0268583,0.0748891,-0.0437503,-0.0173557,0.0150952
0.0377003,0.0190152,0.11692,0.00226969,0.0177559,0.0104632
0.145663,0.0710564,-0.00802031,-0.00510988,-0.00158018,0.00540352
0.075287,0.0465308,-0.0145383,0.00445792,-0.0051932,-0.0177622
-0.0582808,-0.00367803,-0.0734753,0.0448825,-0.0140549,-0.0229411
-0.109444,-0.10008,-0.24613,0.0189868,0.0185042,-0.0110103
-0.0292684,-0.253106,-0.36664,0.0371183,0.0365188,-0.0211308
-0.0516757,-0.263777,-0.370931,-0.0145819,-0.00501257,-0.00459647
0.00792571,-0.199448,-0.209788,-0.00672026,-0.0178647,0.0151094
0.138469,-0.124623,-0.124308,-0.00466058,-0.010437,0.0048449
0.156692,-0.07334,-0.110681,-0.0403436,-0.0292775,-0.00525618
0.0206433,-0.164677,0.131938,0.00375086,-0.0501741,-0.0135181
-0.119147,-0.0553816,0.265331,-0.00910471,-0.0180992,0.0220916
0.0339377,-0.0142579,0.0252375,0.0267268,0.0076037,-0.0145907
0.128086,-0.0914274,-0.0818226,0.0088582,0.0131213,-3.31402e-05
0.0676763,-0.117988,-0.0252488,0.0167422,0.00772035,0.0135942
0.130572,-0.0464675,-0.0265465,-2.82824e-05,0.0281428,0.00637853
0.187896,0.0228491,-0.0684505,-0.0140169,0.0102561,-0.0153818
0.0850869,0.0572638,0.0196222,-0.0240241,-0.00424004,-0.0170155
-0.00394416,0.135436,0.091437,0.0263972,-0.0087634,-0.00413156
-0.0255497,0.0691465,0.0479808,0.0088034,0.0193679,0.0194743
-0.0204563,0.0220798,0.0130476,0.00526413,-0.00640765,-0.0108674
-0.0971694,0.109719,0.00577882,0.012942,-0.00264436,-0.00125766
-0.10026,0.0403295,0.0297244,-0.00478019,0.00968212,-0.000929117
-0.0186184,-0.0271359,-0.0315036,0.0047152,0.00605282,-0.0202957
-0.0550089,-0.0581293,-0.0560131,0.00466914,-0.00837529,-0.0108216
-0.115588,-0.0900787,-0.0271858,-0.00646125,-0.0132136,-0.00177479
-0.102652,-0.0729569,-0.00374095,-0.00435269,0.000689298,-0.00170898
-0.0649072,-0.0781941,0.0722956,-0.00998096,-0.0080272,-0.0140297
-0.0890566,-0.052438,0.129733,0.0143459,-0.00355339,0.00920796
-0.0852667,0.0224957,0.222216,-0.014578,0.0214756,-0.0023967
0.0194205,0.12151,0.0798643,-0.0173338,-0.0123293,0.0235733
0.117308,0.154817,0.231732,0.0472753,0.0488951,0.0206543
-0.0258261,0.174356,0.348601,-0.0132665,-0.0678753,0.00224566
-0.0685937,0.0896601,0.153462,0.0275699,0.0084168,-0.00459218
0.00543472,0.032835,0.0654266,0.0069389,0.0578371,0.0193856
0.0515928,0.16716,-0.067757,-0.0263382,-0.0195866,-0.0168101
0.0499325,0.111762,0.0159337,-0.00700532,-0.0142975,-0.0171819
0.0116272,0.0402473,0.0312127,0.00292622,-0.0129003,-0.0116663
-0.145035,-0.0055695,0.0298547,0.000583217,-0.0259964,-0.0121577
-0.115739,0.055129,-0.0655205,-0.00567922,-0.00509477,-0.0257566
-0.00723317,-0.0247963,0.0903298,-0.00981951,-0.00313193,0.00138617
-0.0720533,0.0233663,0.115417,-0.00854649,-0.00426903,0.0173719
-0.0257351,0.0306428,0.0204506,-0.000944048,0.00378391,-0.0242345
0.119574,-0.0668534,-0.082012,-0.0149908,0.0366949,-0.0187888
0.0883799,-0.105366,-0.127821,0.000970244,-0.0173201,-0.00665998
-0.0117188,-0.0977962,-0.11863,-0.00212505,-0.0269628,0.00428057
-0.0605979,-0.108401,-0.0952381,0.0186923,-0.013112,-0.0177168
-0.0340241,-0.13514,-0.103513,0.0271839,-0.00753325,-0.00359893
-0.0534039,-0.101007,-0.140135,-0.00891811,-0.00589621,0.00337112
-0.0349229,-0.0571238,-0.0826537,-0.0035097,-0.00683153,0.0160446
-0.0216933,0.0241664,-0.015818,-0.00210398,-0.0068835,-0.00524354
-0.0446246,0.0478291,0.0672829,-0.00815237,-0.0124755,0.0101483
0.0344093,0.0339403,0.0997203,0.00878167,-0.00102788,-0.000400066
0.0363081,0.0295989,0.0612911,0.00328825,0.00394338,-0.00167179
0.0105544,0.0124763,0.0324585,0.00563851,-0.00744304,-0.00942802
0.0158698,0.0135366,0.0303348,0.00186335,-0.0003452,0.00345612
0.013501,0.0113336,-0.00919399,-0.00613645,-0.00396961,-0.00746512
0.0197841,0.00809154,-0.0273109,-0.00202999,0.00772491,-0.00657511
0.00713571,0.0156177,-0.00496972,-0.0034171,-0.00370076,-0.00598907
0.0211043,0.00602857,0.0154461,0.0033966,-0.00389221,-0.00926447
0.0179508,0.00283961,0.0229338,0.00244373,-0.00367528,-0.0115837
-0.00130324,0.00710422,0.010013,0.00230995,0.00257504,-0.00364542
0.019901,-0.00148781,-0.00694563,0.00953442,-0.0032275,-0.00960684
0.002913,-0.00786448,0.00371432,-0.00171512,0.00158888,5.96046e-06
0.00603716,-0.0249766,-0.00684751,-0.000253558,-0.00350168,-0.00313377
-0.00787754,-0.0228488,-0.0175973,0.00398721,-0.00306779,-0.0065341
-0.00787911,-0.013237,-0.0187277,-0.000163093,0.0033507,-0.006356
-0.0174173,-0.0121462,-0.0102241,0.00828537,-0.00319701,-0.00102615
0.0178389,-0.0164174,0.00596227,0.00667429,-0.00355569,-0.0158
-0.00451359,-0.0334834,0.0113337,-0.00110801,0.00397894,-0.00174129
0.00519278,0.00819722,0.0271259,-0.00983386,-0.000344992,0.00949764
0.035007,0.0690465,0.0182964,-0.00856987,-0.000826985,0.010015
0.0607346,0.0722774,0.0440131,-0.00482781,0.00395587,-0.00615478
0.0726114,0.0520217,0.0719679,0.00172976,-0.010529,-0.000297546
0.0600084,0.0478121,0.102934,-0.00623083,-0.0182693,-0.00984311
0.00855082,0.0627116,0.0492231,0.00162604,-0.0174105,0.0240064
0.0212132,0.0316921,0.0313091,0.00971025,-0.0173858,-0.0307293
0.0295211,0.00812616,-0.00269806,0.0178154,0.00114584,-0.0149362
-0.00602441,0.00910913,-0.066945,0.00497085,-0.000647068,-0.0138388
0.0138798,-0.008094,-0.122318,0.0265636,0.013919,-0.0111511
-0.00930095,-0.0229526,-0.0774345,-0.0461573,0.015892,0.0022378
-0.0594044,0.195268,0.0769588,-0.0434316,-0.0387585,0.015846
-0.0333479,0.431739,0.314853,-0.052834,-0.0267576,0.00450039
0.0240569,0.492846,0.465325,-0.0341575,-0.0366161,0.047262
0.230177,0.594294,0.535956,0.0631453,-0.0126019,0.0263685
0.492789,0.481786,0.451123,0.0489362,0.00782973,-0.0589378
0.395911,0.498972,0.463471,0.0123827,0.0205439,0.000202537
0.436593,-0.0412973,0.00983105,0.128474,0.0442835,-0.0127664
0.148156,-0.196475,-0.279793,0.0555038,-0.0545741,-0.0303279
0.503082,-0.377833,-0.601027,-0.000636548,0.0866533,-0.00420928
0.421627,-0.603134,-1.195,0.120042,0.166592,-0.0517952
0.941374,-0.709328,-1.22228,0.0297685,0.0654522,0.0930855
4.53155,0.103059,0.0327734,-0.257954,-0.466888,0.192955
1.80922,0.208282,0.386243,-0.0933244,0.0262486,-0.0262003
0.694685,0.617736,0.703152,-0.035017,-0.00724483,-0.0131984
0.962194,0.467093,0.193343,-0.0131159,0.184962,-0.0196347
4.21073,0.75722,0.134178,0.170227,0.0542993,0.161593
4.35416,0.48126,-0.622096,0.273092,0.297739,0.0966719
3.08849,0.249562,-1.11041,0.0563288,0.0747144,0.0571858
0.362132,0.758889,-0.575803,-0.12691,-0.0781901,0.152009
-1.01719,0.29001,0.0855793,-0.129442,-0.236562,0.0291984
0.945471,0.34896,0.436585,-0.00321838,-0.0430003,0.0292861
-0.0691663,0.330422,0.392305,0.0320517,0.0251683,-0.00507164
0.342954,0.0563134,0.200099,-0.0370216,0.0768898,-0.166119
0.121861,0.014359,-0.0632931,-0.019169,0.0386399,-0.0288835
0.086973,-0.0635009,-0.010566,0.00438723,-0.00314215,-0.0111378
0.124357,-0.100884,0.00798074,0.00780389,0.0115597,-0.0217054
0.200745,-0.204193,-0.393868,-0.0291725,0.014878,-0.0180399
0.10242,-0.0104464,-0.817529,-0.0190148,-0.0366786,0.0645394
-0.47891,-0.120776,-0.0219287,0.0203918,-0.0825498,0.0166028
-0.473374,-0.414875,0.395626,0.00236478,-0.0330557,-0.0207473
-1.30763,-0.331683,0.57253,-0.000693738,-0.00118876,-0.0435523
-1.48414,-0.577849,0.833099,0.0196606,-0.0418256,-0.0374466
-0.679105,-0.262016,0.367153,0.0145944,0.0753358,0.0560766
-0.819382,0.0708031,0.0428674,0.00163001,0.033197,0.073244
0.45865,0.0995734,-0.0561743,0.0164273,-0.0411693,-0.0329609
-0.148084,-0.0941743,0.0624778,0.00605258,-0.0289661,-0.0168958
0.379365,-0.00805543,0.058552,-0.00297666,0.0394748,0.0208511
0.373976,0.0741695,0.0409039,-0.00382933,0.0110472,-0.0105772
-0.176095,0.0317852,-0.00041381,-0.0075022,-0.00580889,0.000541627
0.0284244,0.111716,-0.0172611,0.0175683,-0.0232279,0.000681937
0.422785,0.0975697,0.0046076,-0.00753132,0.00698084,0.00594568
0.566499,0.0226601,-0.0103949,-0.00483462,0.000705123,0.000268936
0.677033,0.0993932,-0.0638999,-0.00746149,-0.000371873,0.00504792
0.00484244,0.0102304,-0.0316518,0.0014399,-0.00527692,-0.0218422
-0.0526082,-0.0313551,-0.0134321,-0.00701061,-0.00843894,-0.0065062
-0.0163056,0.00281666,-0.00390149,0.00371772,0.00851798,-0.00559664
-0.0280269,0.00175726,-0.0039385,0.00261888,0.000873566,-0.00530988
-0.00144345,0.00706108,-0.0134885,-0.000722826,-0.00969279,0.003227
-0.0153386,0.0102635,-0.0210416,-0.0062747,-0.00925988,-0.0034492
-0.0345852,0.00384984,-0.031756,-0.00231421,-0.00295675,-0.0150783
-0.0920247,-0.0153034,-0.013682,-0.00832176,0.00605911,-0.0089246
-0.0898139,-0.00887244,-0.000896242,0.00500169,0.0103177,-0.000245571
-0.0479881,0.00719534,0.0429634,0.00482994,-0.00417936,0.000309289
-0.019313,0.0103501,0.0270242,0.00185972,0.00523931,0.00430167
-0.0396816,-0.00675953,0.00782715,-0.00456685,-0.000650644,-0.00294256
-0.0172619,0.016734,0.0130994,0.00227329,0.00184989,-0.00528002
-0.0257738,-0.00995786,0.0175163,0.00735635,-0.0132302,-0.00156522
-0.0342847,-0.0216961,0.0207662,-0.00186694,-0.00742912,-0.00247049
-0.00232891,-0.00356627,0.0175626,-0.00026682,0.000545025,-0.00895214
-0.0204561,-0.0174416,0.0165174,0.00418141,-0.0069803,0.00321603
-0.00978447,-0.0484171,0.0220988,0.00517836,-0.000641823,-0.00367153
-0.0204402,-0.0110284,0.0186121,-0.00623989,-0.00242221,-0.00483942
0.00923104,-0.00575783,-0.00909157,-0.00173074,-0.00320965,-0.00639713
0.00822141,-0.0089447,0.000541066,-0.00187185,-0.00469065,-0.000453174
-0.0364117,-0.013148,0.0207007,0.000359118,-0.00622714,-0.000253737
-0.00349401,-0.0238874,0.00273203,0.00195247,-0.00651431,0.00304955
-0.00454891,0.0102938,0.00143781,-0.00255859,-0.0104203,-0.00202143
0.0219938,0.0113151,-0.0144982,-0.00313604,-0.00599968,-0.00214672
0.0209412,0.0113188,-0.0123637,-0.0039435,0.00593472,-0.00676227
0.0176946,0.026259,-0.0220884,-0.00170025,-0.00217712,0.0065645
0.030455,0.0123568,-0.0251547,-0.00501597,-0.00638437,-0.00625753
0.0389833,0.0080804,-0.0240286,0.00108725,0.000139058,-0.00697774
-0.0163437,0.00280437,-0.0103099,0.00284249,-0.00406575,0.000160575
-0.0153347,-0.0078928,-0.0187854,0.00362638,-0.00854063,0.000158072
0.000673458,0.00384992,-0.015594,0.00275689,-0.00238192,-1.3113e-06
-0.0247295,0.0242121,0.0108886,-0.00147474,-0.00413948,0.00907153
-0.00568037,0.0060026,-0.00922176,-0.00239822,-0.00340617,0.00925922
-0.00978114,-0.0035593,0.0186042,0.00357425,-0.00433993,-0.00536162
-0.0288633,0.0253207,0.0322349,-0.0026713,-0.0053407,-0.00244933
-0.00658878,0.0391585,0.0140656,-0.00218534,-0.00702024,0.00727391
0.00814988,0.0401651,-0.0158062,-0.00297552,-0.00264597,-0.00994688
0.0357325,0.0657402,-0.0383026,-0.00357798,0.00245559,-0.0107903
0.00492545,0.0604499,-0.0223559,-0.00337353,0.0023216,0.00163674
-0.0356788,0.0241343,-0.0383006,0.00317717,-0.00884342,0.00228965
-0.00476617,0.0358631,-0.0371924,0.0100868,-0.015317,-0.00714922
-0.0226959,0.00816123,-0.00395751,0.00615779,0.00375628,-0.00257796
0.00396088,0.00707954,-0.000647236,0.00849569,0.000864327,-0.00231516
0.00938187,-0.0110546,0.0165872,0.00206727,0.00438905,-0.00048244
-0.0182863,-0.0419964,0.0252317,0.00514579,-0.00540054,-0.00168443
0.00320334,-0.00351092,0.051774,0.00893277,0.00194848,-0.0105071
-0.0182499,-0.00780922,0.0282167,-0.00591159,-0.00213575,0.00122797
-0.0416091,-0.0088352,0.0420249,0.0104248,-0.0126466,0.00686371
-0.0236512,0.0113985,0.0141812,-0.00495368,-0.00161433,-0.0162899
-0.0405947,-0.0216674,0.0346328,-0.00231814,0.00763148,-0.00365543
0.0136888,-0.0366781,0.0263864,0.000524044,0.00455821,0.00184315
-0.0225802,-0.0291868,0.0187234,-0.00343308,-0.012156,0.00115579
0.0198636,-0.000433149,-0.0133583,-0.00648284,-0.00666791,0.00446141
-0.00442679,-0.00141981,0.0228849,0.00447103,0.00394744,-0.00045085
-0.014204,-0.00573963,-0.00810833,-0.00494748,-0.00669557,-0.01232
-0.0118067,0.0285141,0.0333472,0.00757098,-0.0148308,0.0026632
-0.0810905,-0.0333883,0.0345595,-0.00521517,-0.0160944,-0.00449646
-0.196254,-0.0781836,0.0237318,0.00900787,0.0190502,0.0022037
-0.020536,0.0273925,-0.000868393,-0.00799012,0.00744069,-0.00195158
0.0583346,0.0187951,0.00375702,0.00196522,-0.000523508,-0.00499988
0.105202,0.00059927,0.0029809,0.000597179,0.00357109,-0.000803769
0.0807394,0.012379,0.00922352,-0.00298166,0.00959861,0.00395554
0.0849569,0.0123622,0.00176142,0.00179356,-0.00260937,-0.000971556
-0.024721,-0.022779,0.0165353,-0.00327134,0.000957727,0.00274909
-0.00988397,-0.00465714,0.00151535,0.00230584,-0.00629318,-0.00297147
0.0860613,0.013441,0.00816878,0.000639021,0.0137337,-0.00383717
0.0061013,-0.0260302,0.00385267,-0.000504822,-0.00172806,-0.00168139
-0.016213,-0.00463486,0.0121785,0.000880182,-0.0068692,0.0106094
0.00389983,-0.000415661,-0.0102126,-0.00613612,0.00372678,-0.00897127
-0.0259301,-0.00359663,-0.00923391,0.00368124,-0.00672555,-0.00143003
-0.0151849,0.0103065,0.00460515,0.000374854,-0.00471002,-0.00240088
-0.00769146,0.00283433,0.0110933,0.00737512,-0.00225157,0.00438762
-0.00755419,0.00928348,0.0334876,0.00320095,0.00520092,-0.000945747
0.00513861,-0.0249317,0.0209377,0.00300279,0.00216019,0.000295877
-0.022563,-0.0462711,0.0231093,-9.47714e-05,-0.00185269,0.00239366
-0.034537,-0.0794445,-0.0162546,-0.00178498,-0.0105814,-0.00451422
-0.0344226,-0.0548457,0.000680445,-0.0014495,0.00728267,-0.00152975
0.0103048,0.0230794,-0.0103401,-0.0065237,0.00287813,0.00117278
-0.0141983,0.0188278,-0.00933785,0.0037154,0.00110215,0.00562274
-0.0164266,0.00277893,-0.0241973,0.00229648,-0.00405955,-0.00480801
-0.0131784,0.00386,-0.0156453,-0.000542074,0.00127411,-0.00315148
-0.00356725,-0.00468555,-0.0112795,0.00538191,0.00347757,-0.00330025
-0.00886901,-0.0164213,-0.00588333,0.00553945,-0.0120002,-0.00776529
0.0103305,-0.0153633,-0.00261002,-0.00217733,0.00291014,-0.000248253
0.0252323,-0.0079015,-0.00581052,-0.00630915,0.00260782,-0.00573993
-0.0108557,0.00391491,0.0164153,-0.00556087,-0.00166368,0.00563997
0.00175235,0.00492083,-0.0134596,-0.00526232,-0.00954288,0.00304711
-0.0364832,-0.00355881,0.0078215,0.00531209,-0.00730366,0.00783336
-0.00022366,0.00817144,0.0121554,0.000482798,0.00130719,0.000148535
0.00398031,-0.00573271,0.00371264,-0.00208983,-0.000910759,-0.00480831
0.00398952,-0.000390671,0.0047482,0.000909686,0.00193143,0.000814438
-0.0118478,-0.00247056,0.0292732,-0.00315672,-0.00463653,0.00317359
-0.0140559,-0.0163768,0.017604,0.000395,0.00458962,-0.0105381
-0.0182595,-0.001404,0.0260387,0.001609,-0.00435787,0.00697517
-0.00348412,-0.00466154,0.00261091,0.000788331,0.000431538,0.00124532
-0.00567701,-0.000405585,-0.00810985,0.00198129,-0.00551516,0.00195873
-0.00138449,-0.00360422,-0.00273042,0.00310296,0.000203669,-0.00212181
0.00291043,-0.00146051,0.00261145,0.000593841,-0.00115716,0.00107068
0.00500862,-0.00360861,-0.00270731,0.00330502,0.00719959,0.0053854
0.0273373,0.00383763,-0.0112208,-0.00542265,0.00566393,-0.000115991
0.0187257,-0.00472616,-0.0250865,-0.00190908,0.00253421,-0.00681686
-0.0344256,0.00282656,-0.00503396,0.00138307,-0.00905079,0.0131188
0.0113084,0.0145169,-0.0198982,0.00349092,-0.00592381,0.00392282
0.0229239,0.0208852,-0.0380589,-0.00271994,-0.00294292,-0.00282663
0.00799577,0.0251656,-0.0402797,-0.00465572,-0.00480855,0.00246048
-0.00901262,0.0283933,-0.0339518,-0.0028795,-0.00479031,-0.00165629
-0.0332807,0.0210055,0.00660548,0.0056541,0.00504839,0.00348282
0.0125141,0.00067224,0.00477085,0.00177479,0.00496459,0.00561142
0.00833247,-0.0174582,0.0198319,0.00764042,-0.00834906,0.00105464
-0.0342243,-0.00352299,0.0291984,-0.0019393,-0.00455803,-0.000586867
-0.0225371,-0.00674533,0.0239201,0.000222623,0.00163025,0.0041557
-0.0214716,0.00607073,0.0227717,-0.00104937,-0.00520438,0.0023548
-0.0386217,-0.00569529,0.00675852,0.00245208,0.00365764,-0.0125829
-0.00566171,-0.00787655,-0.00485771,-0.000204802,-0.000913024,0.00108039
0.0273928,-0.000418945,-0.00157573,0.00346336,0.00766903,-0.00136048
-0.00245908,-0.0217627,-0.0026167,0.00116709,-0.00476754,0.0102156
-0.0248172,-0.0238762,0.000517592,-0.0013279,-0.00433809,-0.00909048
-0.0226293,0.000704553,0.00784364,0.00251201,-0.0026409,0.000966787
0.0102602,-0.00256732,-0.0155146,0.0017415,0.00421834,-0.000230074
0.00174545,-0.00896583,-0.0133693,0.00311413,-0.00646555,-0.000739872
-0.00882515,-0.00572911,0.000460182,-0.00121355,-0.00532424,-0.00185239
-0.0289813,0.0060607,0.0141975,-0.00169361,-0.00636274,0.00494313
0.0423773,0.0188141,0.0079717,-0.00183392,0.0211567,-0.00198239
0.0272384,0.035849,-0.0306588,-0.0135633,-0.0186051,-0.0093376
0.202958,0.109074,-0.230277,-0.0967429,-0.0409237,-0.0368542
0.0201593,-0.105639,-0.310771,-0.104775,-0.0524462,-0.0444028
-3.88635,-0.447588,0.37238,-0.0448322,-0.346636,0.0195774
-5.19337,-1.04108,0.664089,0.0611362,-0.176086,-0.0224359
-4.65482,-0.916392,0.730474,0.136036,0.218327,0.219036
-1.11579,0.236069,0.351609,0.0110837,0.348291,0.187888
-1.74306,0.0726019,0.0629099,0.192208,0.0864133,-0.258533
-0.129253,0.110148,-0.370426,0.00483575,0.0771703,0.0563635
0.214717,0.189936,-0.409189,-0.0109082,-0.00153017,-0.0541387
-0.278617,0.0325492,-0.217694,0.0522711,-0.0572284,-0.0716141
-0.143204,-0.0294716,-0.196485,0.00719965,0.0136969,-0.0168308
-0.183214,-0.0260975,-0.116522,-0.0360314,-0.0526655,0.00895584
-0.432709,0.0437762,0.0274,-0.0440431,-0.0446661,0.0137554
-0.591159,-0.0022504,-0.094698,0.007487,0.0682718,-0.0231576
-0.204547,0.0906397,0.0471817,0.0241765,-0.028085,0.00849748
-0.124553,0.127539,0.413721,0.00579369,-0.118911,-0.00229812
-0.0663716,0.0138483,0.175343,-0.0119828,0.0677281,-0.00812387
0.116952,0.0622326,-0.175804,0.00448361,0.0701426,0.000443697
0.160365,0.0987451,-0.046596,0.00735256,-0.0233222,-0.009974
0.0259462,0.0392995,0.10928,0.00327441,-0.0228294,0.00327647
0.00360974,0.000121765,0.297498,-0.0143,-0.0450041,-0.018533
-0.0128237,-0.0733797,0.406893,-0.0213917,-0.024361,-0.0100701
0.166378,0.0330337,0.25195,0.00871778,0.0551448,-0.0238678
-0.00471785,0.116291,0.141787,0.00805864,-0.0387813,0.0215623
0.0238328,0.343697,0.0848629,-0.0570345,0.0318345,0.0344082
0.0171937,0.287025,0.0488744,0.0612336,-0.00177196,-0.0145237
-0.086261,0.140752,0.0451644,0.0448064,-0.00753585,-0.0114959
0.058081,0.112709,-0.0470705,-0.00226298,0.0257086,0.00942373
0.0919043,0.0891064,-0.090597,0.00386593,-0.0112464,-0.00718451
0.109072,0.0581545,-0.0678932,0.00218403,-0.0081642,-0.0109556
0.064442,0.0603592,-0.0477728,-0.023113,-0.0241962,0.0176321
0.0283709,0.0294599,-0.018861,0.00384253,-0.00136614,-0.0148181
-0.0267485,-0.00779621,0.0324604,0.00553259,-0.00978759,-0.0132244
0.00623937,0.0071186,0.0239401,-0.0128191,0.00430062,0.00663424
0.0178174,0.0540621,-0.00410117,-0.00509739,-0.00539178,-0.00274825
0.0252569,0.0156019,-0.0038246,0.00215641,0.00193948,-0.0136857
0.00186054,-0.00893249,0.00586349,-0.000187099,0.00272012,-0.00801587
-0.0131257,0.00707958,-0.00711858,-0.00554112,7.09593e-05,0.0062052
-0.00136475,0.0359188,-0.00298623,-0.00286815,0.000502497,0.00477207
-0.0120809,0.0295017,-0.0126027,0.00670266,-0.0110506,-0.00425434
-0.0109414,0.011366,0.00140863,0.0098623,0.00583044,-0.00647891
-0.0120814,-0.0228329,-0.00798841,0.0084317,-0.00298387,-0.00375688
-0.0109999,-0.0420534,-0.00358661,0.00409228,-0.00785044,-0.0077554
-0.0152137,-0.0217429,0.00267567,-0.0074473,-4.28557e-05,0.00116634
-0.00451079,0.00923523,0.00785892,-0.0138833,-0.00284538,-0.00158477
-0.0194496,0.017785,0.00347271,0.00312296,-0.00899249,-0.00422001
-0.00989557,-0.028158,0.00166901,0.00737876,-0.00751346,-0.0105851
-0.0407474,-0.11036,0.0170461,0.0164292,-0.0199352,-0.0125782
-0.0258039,-0.109295,0.0213681,0.00451675,0.00391084,0.0077033
-0.00984167,-0.0612521,0.013638,-0.0126817,-0.000437826,0.00295568
-0.00984431,-0.0153273,0.00906657,-0.00688496,0.00137529,0.00521827
0.000727329,-0.0164275,-0.00477702,0.00419611,-0.00576612,-0.0133113
-0.0257868,-0.0751136,0.0211472,0.00250944,-0.00178796,-0.0127625
-0.0352481,-0.125268,0.0470816,-0.00149703,-0.0132077,-0.00938773
-0.0215688,-0.112511,0.0171327,0.0147008,-0.00355256,-0.00332046
-0.020462,-0.0676409,0.0200478,-0.0154211,0.00888577,0.00242126
-0.0396333,0.0124773,0.0141173,-0.0165062,-0.00574571,0.0140564
-0.000121986,0.0583992,0.0246508,-0.00392106,0.00354776,-0.00028038
-0.0119604,0.0658494,0.00425878,0.00690299,-0.00670025,-0.0093931
0.00282117,0.0369616,-0.0157991,0.0100779,0.000180423,-0.00309896
-0.00999396,0.0177381,-0.0189278,0.00640672,-0.00918019,-0.00598025
0.00390276,0.00492389,-0.0102442,-0.00192052,-0.00393721,-0.00514746
-0.00242933,-0.000392802,0.000449244,-0.00311944,-0.00551972,-0.00502825
-0.00240527,0.00922605,0.00359335,0.00324246,-0.00534248,-0.00298619
-0.00559439,-0.00144985,0.00578772,0.0072588,-0.00169179,-0.00815868
-0.00983246,-0.0174607,0.0112189,0.00284421,-0.00868598,-0.00518703
-0.00877981,-0.0174647,0.00908489,0.00177771,-0.0060569,0.000515223
0.00289096,-0.00253558,-0.000584252,-0.00307542,0.00545818,-0.00120544
-0.00353153,-0.0100155,-0.00483378,0.00297856,-0.00458995,-0.0032537
0.00924048,-0.0132335,-0.00690171,-0.0038588,-0.0013091,-0.00669801
-0.0131165,0.0124219,-0.0060837,-0.00220406,0.000503719,0.00250328
0.00077743,0.0199002,0.000330239,-0.00267437,-0.00299779,0.00138044
-0.00777451,0.0156264,-0.00394786,0.00427741,-0.0101666,-0.00835681
-0.000332409,-0.00467623,-0.00485794,0.00219396,0.000445396,-0.00849056
-0.00356198,-0.00681976,-0.0101979,0.000715166,-0.00149539,-0.00331783
-0.00144668,-0.000418989,-0.0134343,-0.00194234,-0.00513527,-0.002352
0.0167584,0.00279851,0.00157045,-0.00652981,0.0055621,-0.0077312
-0.00559705,0.00602559,0.00467089,0.00574595,-0.00888851,-0.00173879
-0.00243299,-0.00787056,0.00049857,-0.000581503,0.00206566,-0.000117064
-0.00245699,-0.00467326,-0.00379642,0.0014028,-0.00731725,-0.0070498
0.00502787,0.00921304,-0.00065262,-0.00423709,0.00257492,-0.00123918
-0.00133868,0.0113617,0.0035834,0.000683308,-0.00286216,-0.00252748
-0.00769873,0.0135116,0.00888922,0.00180641,-0.00767967,-0.00016284
0.00610359,0.0166911,0.000372222,-0.000669062,-0.00300682,-0.00344205
0.00398261,0.0113556,0.0025353,0.00320518,-0.00161934,-0.00477719
0.000794624,0.00281577,0.00471658,-0.00565043,-9.59337e-05,-0.00556767
-0.00451439,0.00175717,0.00790891,0.00727829,-0.00929072,-0.00136733
0.00610415,0.00494266,0.00151713,-0.00328332,0.00206479,-0.00118101
0.00717972,0.0124215,0.00254017,-0.00265175,0.00268868,-0.00174093
0.00610677,0.0102839,0.00148204,0.00255913,-0.00465357,-0.00777173
0.0050459,0.00708265,0.00256575,-0.00106597,-0.00507116,-0.000675559
-0.00663377,-0.000373671,0.0100512,4.65214e-05,-0.00346828,-0.0062902
-0.00877167,-0.00144258,0.00898264,0.00387961,-0.00305659,-0.00457811
-0.0109539,-0.00145589,0.000426969,-0.00129658,-0.00304356,-0.00177372
-0.00568866,-0.0110897,-0.00910831,0.00931466,-0.00446811,-0.00596809
-0.0162954,-0.0164081,-0.000565287,0.0051015,-0.0102311,-0.00304258
-0.00457312,-0.0260282,0.000608101,0.00627637,0.00655243,-0.00723326
-0.0110094,-0.0228321,-0.00691529,0.00518671,0.000732929,0.00222254
0.00173499,-0.00469785,-0.0155316,-0.00565097,-0.00164494,-0.00133085
-0.00142811,0.0113353,-0.0113744,-0.00365269,-0.00293911,-0.00126016
0.0028308,0.0177395,-0.0124686,0.00209534,-0.00746754,-0.00558615
-0.0088635,0.00707617,-0.00710213,0.00631678,-0.00694227,-0.00244343
-0.00461668,0.00172747,-0.00918674,0.00499055,-0.00357863,-0.00047338
0.00708816,0.00812239,-0.01239,-0.00294045,-0.00191289,-0.00293386
0.0113967,0.0113362,-0.00491434,-0.0026789,-0.00443831,-0.00413644
0.0136215,0.0070901,0.0111477,-0.00469381,0.00343964,-0.00339139
0.0051158,0.00603429,0.0143272,0.00235781,-0.00477996,-0.00308144
0.012526,0.0113548,0.00577273,-0.00178877,0.00349596,-0.000653028
-0.00138398,0.0102806,-0.00388918,0.00615296,-0.00893638,-0.00566697
0.00398224,0.0102866,0.00254403,-0.0035947,0.00452343,-0.000384688
0.000790363,0.0199031,0.00246887,0.000599772,-0.00173545,-0.0074482
0.0115846,0.0167319,0.026035,-0.00296578,0.0055958,-0.00479794
0.00723147,0.0135042,0.0110819,-0.00220719,0.00193655,-0.0070616
-0.00558302,0.0209812,0.00564441,-0.00397468,-0.00136897,-0.00446916
-0.00239933,0.0209757,0.00351814,0.00152951,-0.00234503,-0.00337207
-0.0226631,-0.00357918,0.00253256,0.0130967,-0.0175287,0.00309706
-0.000262976,-0.0196096,0.00806271,0.00223261,-0.00233847,-0.0083431
-0.00771947,-0.0153317,0.00800809,-0.00961646,0.00101525,-0.00257158
-0.00343726,-0.000375625,0.0100622,-0.00274476,0.0011175,-0.00201619
-0.00352827,-0.0036067,-0.00487457,0.00346136,-0.00180188,-0.00419581
-0.0110078,-0.0196277,-0.00693559,0.0107778,-0.00508633,-0.00760329
-0.0131473,-0.0367174,-0.00683241,0.00758108,-0.00174534,-0.00718451
-0.0110482,-0.0367286,-0.0121662,0.00442034,0.00212345,-0.00154221
-0.0184799,-0.0206937,-0.00909431,-0.00452372,-0.000715911,-0.00230455
-0.0290606,0.000696609,0.00141224,0.00069645,-0.00738648,0.00858665
0.11288,0.0423093,0.0358647,-0.0333949,0.0303998,-0.00374067
-0.0101873,0.052927,-0.0544155,0.0206813,-0.0509863,-0.0183458
-0.134853,-0.0591235,-0.0445388,0.0184421,-0.00780815,-0.0158772
-0.0485612,-0.0282203,-0.0497576,-0.00532421,-0.0129211,0.0114239
-0.00381308,-0.0496163,-0.048382,-0.00706539,-4.42564e-05,0.00929475
0.0969274,-0.0989622,-0.124616,0.0157664,0.0296712,-0.0305448
-0.0405467,-0.230235,-0.116798,0.0112472,-0.0326672,-0.031708
-0.229279,-0.31878,-0.131888,0.00587374,-0.00597709,-0.0207489
-0.143452,-0.410836,-0.203625,0.0131033,0.0113058,-0.00714993
-0.0605518,-0.386395,-0.24087,-0.00454688,-0.000243425,0.0221877
0.04787,-0.275165,-0.116176,-0.00338477,-0.0143829,0.0285053
-0.0347577,-0.11262,-0.0502266,-0.0370882,-0.0549798,0.025669
-0.0862755,-0.0261795,-0.120429,-0.035303,0.0194558,-0.0175655
-0.0123044,0.0550682,-0.0522992,0.0176158,-0.0169895,0.0351119
0.106951,0.349599,0.441998,-0.0455518,-0.0993018,0.031862
0.0228474,0.289118,0.637601,0.029175,-0.0240473,-0.0533161
-0.0820185,0.0815551,0.403496,0.0653768,0.0529395,-0.0432761
0.122519,-0.242094,-0.108631,0.0825434,0.161944,-0.0693908
-0.0389751,-0.151053,-0.0393086,0.0366252,-0.00374642,0.00680041
-0.0682345,-0.0956361,-0.126323,-0.0432993,0.0195962,0.012386
0.04547,-0.0968796,-0.177174,-0.0208613,0.0164853,-0.0133127
0.101128,-0.0562633,-0.138763,-0.00508699,-0.00971198,-0.00165761
0.0804565,-0.0304277,-0.034301,-0.011003,-0.0229548,-0.002841
0.00104349,-0.0238133,0.048698,-0.00161542,-0.0213936,-0.0033474
-0.0576498,-0.0227264,0.0335111,-0.0103218,-0.010713,-0.00349903
-0.038533,-0.0718896,0.0274922,0.019622,0.0222017,-0.0139685
-0.0273618,-0.0976917,-0.0620481,0.00827286,0.000968844,-0.0145557
-0.041341,-0.0966505,-0.0834761,-0.00789191,0.00198588,-0.00102496
-0.0317567,-0.0560731,-0.0879785,-0.00625235,-0.0129134,0.00628734
-0.0240465,-0.0132841,-0.0497622,-0.0089514,0.00223786,-0.00425839
-0.0057806,-0.0164579,-0.0240298,-0.000110909,-0.00297809,0.00196123
-0.00245206,-0.0206931,-0.00155412,0.00293337,0.00134969,-0.00708508
-0.0120624,-0.0238971,-0.00477259,-0.00327225,0.0026305,-0.00077033
0.00281501,-0.0143073,-0.0122588,0.00313933,0.00424409,-0.0021919
0.00599139,-0.0164519,-0.0154379,0.002515,2.5779e-05,-0.00313616
-0.00248537,-0.0239084,-0.00687279,0.00278895,0.00509343,-0.0110987
-0.0259469,-0.0249637,-0.0101609,0.00166781,-0.00809675,-0.00221324
-0.0216571,-0.0206868,-0.00589863,0.000248611,-0.00183883,0.00155973
-0.0141865,0.00280739,-0.00602195,0.00248836,-0.00625581,-0.00161219
-0.00349941,0.00280943,-0.000641225,0.000815868,-0.00156432,-0.00088644
-0.000250592,-0.00785831,0.00905652,0.00232816,-0.00482091,-0.00180352
0.0082748,-0.0313617,0.0113787,0.00339007,-0.00601935,-0.0088017
-0.0152068,-0.0217434,0.00374917,0.0036383,-0.00398999,-0.00533819
-0.0355772,-0.00360733,-0.0188836,-0.004189,-0.0074175,0.00273299
0.0113958,-0.00361714,-0.0037478,0.00800468,-0.00407714,-0.00351286
0.0286334,0.00390128,0.0272535,-0.000196546,0.0051437,-0.0156879
0.0285236,0.00173364,0.00910254,-0.00661951,0.00883034,-0.0049324
0.0125289,0.0166946,0.00574058,-0.000174105,-0.00337908,-0.0075537
0.0243988,0.00818537,0.0314822,0.00366302,-0.00291523,-0.00494397
0.00188005,-0.00892872,0.00907277,0.0107,-0.00215289,-0.00328064
-0.00146211,-0.0185802,-0.0143849,-0.00044927,0.00417587,-0.00756407
-0.00361654,-0.0143137,-0.0186936,0.00723708,-0.00482035,-0.00603294
-0.0152779,-0.0100146,-0.00915071,0.00155854,-0.00190663,-0.00262475
-0.00674919,-0.0142928,-0.00802069,0.00539872,-0.00227574,0.00478745
-0.0172298,-0.00996141,0.0207595,-0.0012342,-0.0130868,0.00362396
0.0019938,-0.0110303,0.0283162,0.00469947,-0.00118625,0.00520539
-0.0119832,0.00709982,0.00570979,-0.001334,-0.00339052,-0.00442505
-0.00246638,0.0145476,-0.00712425,0.00879146,-0.00223386,-0.00722432
0.00701967,0.0241217,-0.0253128,-0.00165865,-0.000176638,0.00491071
-0.0164146,0.0134612,-0.0231947,0.00186901,0.000427872,-0.000773549
-0.0142899,0.000641481,-0.0231041,0.00519773,-0.00789526,-0.00400329
0.0135816,0.0166907,0.00360633,-0.000528008,-0.00787273,3.43323e-05
0.032798,0.000665672,0.011263,0.0192045,-0.0035792,-0.00470603
0.014612,-0.00254517,-0.000538598,0.00184195,-0.0109268,-0.00876045
-0.00888662,0.0113398,-0.0114001,0.00138451,-0.00153726,0.00273216
0.0157037,0.0241621,0.00143035,0.00584589,0.00253168,-3.14713e-05
0.0252803,0.0102657,0.000489477,0.002018,0.00451156,-0.00875068
-0.00779653,-0.00360675,-0.00595606,0.00246525,-0.00276136,-0.00558543
0.00498512,-0.000413974,-0.00699659,-0.000263602,0.00642219,-0.0109484
-0.00668359,0.00174647,0.00149254,0.00485396,-0.00399008,-0.00517488
-0.0088078,0.00281853,0.00254523,0.000716895,0.000354886,-0.000519037
0.00076974,0.00387571,0.000437526,-0.00692749,0.00390011,0.00156569
0.00288228,0.0177525,-0.00391691,-0.000604689,-0.00304329,-0.00203741
0.00395901,0.00173435,-0.000603579,0.00656983,-0.00036943,-0.00369811
-0.0110166,-0.0121552,-0.00911869,0.00401059,-0.00496063,-0.00680494
-0.00777631,-0.00146464,-0.00276481,-0.00256309,0.00303173,0.000419736
0.000868801,0.0103129,0.0164228,0.00548296,-0.0108979,-0.00815368
0.0200897,0.0167197,0.0228621,-0.00199997,0.00494641,-0.00301135
-0.0153048,0.0252215,-0.0168557,-0.00207445,0.00672373,-0.00497437
0.00168409,0.020919,-0.0263798,0.00511171,0.00332314,-0.00462377
0.00598813,0.0155887,-0.0188518,-0.00319514,-0.00309491,-0.00438476
0.0135583,0.0081385,0.000458622,4.44204e-05,0.000468582,-0.00176501
-0.00674058,0.0156143,-0.00928208,-0.000769779,-0.00495908,-0.00232852
-0.00665283,0.0124366,0.00569561,0.00256673,-0.00440329,-0.00327313
-0.000281301,-0.00573222,0.00370247,0.00970821,0.000579566,-0.00424755
-0.00777848,-0.0185537,-0.00158604,0.00368407,-0.00402424,-0.000641823
-0.0216224,-0.015337,-0.000589807,0.00592873,-0.00343066,-0.00343537
0.0177383,-0.0153848,-0.0111276,0.0046434,0.00548598,-0.0056529
-0.0153165,-0.0110953,-0.0155517,-0.00405467,-0.000185639,-0.00584412
-0.00881716,-0.0035937,0.00152088,0.000870198,0.000905871,-0.0046519
-0.00668365,0.00174678,0.00149187,-0.00133002,-0.0149978,-0.00454879
0.0350899,-0.00996944,0.0391203,0.00631151,0.0150626,0.00304079
0.102735,0.00477182,-0.0536767,0.0148946,0.00145465,-0.00361133
-0.0241821,-0.00371248,-0.0733284,-0.0133336,0.00294638,-0.00574541
-0.0526904,-0.0313838,-0.0273124,0.00344844,-0.00379452,-0.013761
-0.0354811,-0.0292138,-0.000550392,-0.00371407,0.0051924,-0.00497246
-0.0321775,-0.00675554,0.0153418,-0.00674981,0.00424811,0.00298643
0.0106152,0.029576,0.0409089,-0.00393713,-0.00678751,0.00698423
0.00962704,0.043483,0.0525696,0.00106454,-0.00650474,0.00243568
-0.00127552,0.0220587,0.0131339,0.00578511,0.00358975,-0.0038625
0.0134219,0.00382711,-0.0219525,0.0111488,0.000581592,-0.00393391
0.00809587,-0.00578113,-0.0208409,0.000548303,-0.00370303,-0.00148177
0.0156584,-0.0153684,-0.00258767,-0.00591333,-0.00266537,-0.00610518
0.00511556,0.00496455,0.0143374,-0.00537086,0.00218582,5.24521e-06
0.0115278,0.0177824,0.0164139,0.00120501,-0.00398836,-0.00326467
0.0115838,0.014594,0.0260521,-0.000871226,0.00112206,0.000412583
0.00198018,0.0124613,0.0238926,-0.00417611,0.00260055,-8.10623e-05
-0.00233349,-0.0014357,0.0164888,0.00462566,-0.0014711,-0.00449216
-0.00244708,0.00173608,-0.0027659,0.00286604,-0.00124812,-0.00455546
0.00184695,0.00174248,0.00259181,-0.00538984,0.00213271,-0.00577962
-0.00027481,-0.00573089,0.00477207,0.00712639,-0.00323004,0.00119591
-0.001374,-0.00894346,-0.000554596,0.00239074,-0.00210589,-0.00252032
-0.00459571,-0.00787984,-0.00484839,0.00217609,-0.00189736,-0.00181961
-0.00888394,-0.0217688,-0.00797974,0.00167814,-0.00320223,-0.00424361
0.00400462,-0.0217481,0.00916271,-0.00223145,-0.000312418,-0.00453889
-0.020446,-0.0110334,0.0175504,0.00174662,-0.00675437,0.00476229
0.00937169,0.00602839,0.0132765,-0.00168042,0.00447589,-0.00426948
-0.00451845,0.00602701,0.00681504,0.00416879,0.00204837,0.00271106
0.00389074,0.00598711,-0.0123854,0.00185229,0.000497401,-0.00475597
0.00821899,-0.00254157,-0.000559999,-0.00273985,0.00103951,-0.00358081
0.00718841,-0.00893764,0.00588594,0.00169858,-0.00779814,-0.00615311
0.00091688,-0.00889858,0.0261652,0.00025107,0.00286654,-0.00832176
0.01788,-0.000391293,0.0112139,-0.000600249,0.0127324,-0.00716281
0.0102312,0.0283956,-0.023191,-0.00982989,-0.00348005,0.000500679
-0.00240129,0.00388557,0.00469938,0.0144985,-0.0121568,0.00367928
0.0125145,0.000669844,0.00477599,0.00840378,0.0027256,-0.00679207
-0.0131082,0.00281032,-0.00388104,-0.0023302,-0.00123799,-0.00287414
0.00609592,0.00066647,0.000479699,0.00490345,-0.00324139,-0.00279117
-0.00559849,0.00282021,0.00469337,0.0019301,-0.00208926,-0.00869751
-0.0109803,-0.00360071,-0.00383093,-0.00104502,-0.00186861,-0.00295997
-0.00458279,0.0049396,-0.00386141,0.00110084,0.000675648,-0.00316894
0.00181455,0.000664473,-0.00274252,-0.0055057,0.00452143,-0.00505853
-0.00136185,0.00280912,0.000436461,0.00743042,0.0019576,-0.000287771
0.0135109,0.00278448,-0.00698598,0.000555784,0.00400144,-0.00288987
0.00182191,0.0156197,-0.0028405,-0.00144446,0.00452965,-0.0035423
0.0103346,0.017745,-0.00495732,0.00148007,-0.00251317,-0.00216091
-0.00456467,0.00280876,-0.000642081,-0.00262153,0.00226942,-0.00880945
-0.0162776,0.00602417,0.000361284,-0.00116028,0.000547528,0.00185812
0.00703141,0.00917252,-0.0220103,0.00393113,-0.000910282,-0.00396085
0.00383074,0.0134448,-0.0231163,0.00304829,-0.00238556,-0.00865746
0.00072822,-0.00254477,-0.0059314,0.000884354,-0.0074124,-0.00749266
-0.00993982,-0.0153572,-0.00695615,0.00325155,-0.00289631,-0.00491071
-0.0258898,-0.0131992,-0.00168829,0.00292686,-0.0101414,-0.00338626
0.00825976,-0.0100046,0.00696493,-0.00582653,0.00255305,-0.00260234
-0.0130284,-0.00357452,0.0100503,0.000815123,-0.00589341,-0.00289583
-0.00134582,-0.00359472,0.00368396,0.00228947,0.00444379,-0.000295997
0.00814609,0.00491306,-0.0134292,0.00431016,-0.00449309,-0.00506687
0.0124485,-0.00362184,-0.00588035,0.000580385,0.00304508,-0.0049541
0.00925526,0.0027891,-0.00593255,0.000426695,-0.00661021,-0.000733972
0.00400647,0.00708806,0.00684169,0.00200534,-0.00338829,-0.00136685
0.00181615,0.00386905,-0.00276329,-0.000647604,-0.00393188,-0.00305653
-0.00779287,0.00387101,-0.00600538,-0.00410369,0.00236461,0.000724077
-0.000348547,0.0134736,-0.00924521,-0.00369719,0.00565308,-0.00114822
0.027359,-0.00470282,-0.00688653,0.00132629,0.00786099,-0.0185497
-0.00450949,-0.0142626,0.0101509,-0.00322866,-0.00197244,-0.00306594
-0.00774209,-0.00999971,0.00370287,-5.9098e-05,-0.00215447,-0.00445664
-0.010932,0.00389049,0.00359811,-0.00601549,0.00429368,-0.00567484
0.0113468,0.013457,-0.0134744,-0.00290444,0.0104108,-0.00365829
0.0273521,0.0198597,-0.0102503,0.000960156,-0.00512058,-0.0074507
0.0305551,0.00704261,-0.00801822,0.00444509,0.00041467,-0.0102359
-0.00456367,-0.00787096,0.00049486,0.0045345,-0.00556719,-0.0117369
0.00185028,-0.00466558,0.00370344,0.000939891,-2.75373e-05,-0.00627089
0.000840697,0.00496379,0.012185,-0.00575744,0.000207186,-0.00457525
-0.00888761,0.00920297,-0.0113853,0.00811471,0.000980973,-0.00465751
0.00169049,0.00810432,-0.0241597,0.00291236,-0.0111652,-0.0104017
-0.00251356,-0.0164405,-0.0122632,0.00136048,-0.000123262,-0.0104789
-0.00245606,-0.0164236,-0.00264733,0.00108299,0.000930279,-0.00428832
-0.010902,-0.000373849,0.00897001,-0.00196597,-0.0161044,0.00448358
0.0125807,0.0049606,0.0154343,-0.00220224,0.00238207,-0.00626779
0.0146388,-0.000402611,0.00372415,0.000425577,0.00121281,-0.00392926
-0.00456312,-0.00680285,0.000488126,-3.32892e-05,0.000206023,-0.0127343
0.00609712,-0.0100143,0.00161892,0.00270012,-0.00459358,-0.00809717
0.00506455,-0.00786745,0.00694262,-0.000258505,0.000288725,-0.00243831
0.0018499,0.0198984,0.00140897,-0.00180292,0.00115675,0.0038662
-0.00984771,0.0156429,0.00566419,0.00691496,-0.00710064,-0.00667572
0.0231955,0.000669044,0.00909035,0.0032357,0.00281477,-0.00636578
0.000798902,0.0113612,0.00466138,-0.00571166,0.00222266,-0.00713205
0.00821104,0.0198847,-0.00391031,-0.000296295,-0.00310323,-0.00184417
0.00179381,0.023087,-0.00822985,0.00166911,-0.00220856,-0.0111842
-0.00352164,0.0220268,-0.00610645,-0.0042631,-6.02901e-05,-0.00221205
0.000738473,0.0177502,-0.00606144,0.00343755,0.00285661,-0.0077157
0.00609857,0.00600753,0.000444889,-0.00304857,-0.00270826,-0.0033288
0.00496749,0.00278528,-0.0102233,0.000426009,-0.00308374,-0.00598502
-0.00348115,0.000677789,0.00257981,-0.000282705,-0.00167546,0.0010637
0.00610815,0.0124186,0.00147171,-0.00171599,0.000313044,-0.00178695
0.0103856,0.0177605,0.00358903,0.00165966,-0.0055128,-0.00308788
0.00717308,-0.0014665,0.00263342,0.00917122,-0.00321904,-0.00563693
-0.0110139,-0.0196311,-0.00800081,0.00512882,-0.00653958,-0.00508475
-0.0121025,-0.0271119,-0.0111646,-0.00446935,0.00287053,-0.00798154
-0.00666405,-0.00999532,0.00584064,-0.00324488,-0.00112599,-0.00570965
-0.00345242,-0.00572188,0.00796328,0.009004,-0.00633112,0.00212145
0.00293067,-0.000389562,0.00581599,-0.00131691,-0.0023914,-0.0048008
0.00402475,-0.00678905,0.0112014,0.00201391,0.00072813,-0.0075134
-0.00232523,-0.00997614,0.0186781,-0.0042384,0.0023421,0.000143766
0.0050298,-0.000400614,0.000481963,0.000230581,-0.000640392,0.00496364
-0.0066879,0.00601765,0.00039581,-0.0012946,0.00319806,-0.000783563
0.00819962,0.0102704,-0.00491921,0.00236627,0.001993,-0.00541496
-0.000314982,0.0166875,-0.00392359,-0.00776243,0.00728035,-0.00726259
-0.00457986,0.0241666,-0.00505755,-0.00667188,-0.00400954,-0.00373983
0.012474,0.00920279,-0.00275958,0.0048537,-0.00158572,-0.00323129
-0.000285896,0.0113569,0.00145095,-0.00409763,-0.00641757,-0.00271964
0.0039028,0.00492367,-0.0102437,-0.00217575,0.000218898,-0.00637984
0.0114318,0.00493889,0.00153663,0.00469835,0.00877428,-0.00125825
0.0017168,-0.00256661,-0.0187518,-0.000779226,-0.0062404,-0.00392127
-0.00679931,-0.012171,-0.0165829,0.0014466,-0.00715682,-0.00875473
-0.0227414,-0.0196223,-0.00911721,-0.00106463,-0.00565547,-0.0133255
-0.0205847,-0.0196169,-0.00483443,0.0105188,-0.00487366,-0.00158334
-0.0174292,-0.012155,-0.0123502,-0.00536805,-0.0056915,-0.0061307
-0.0109317,-0.0206732,0.0058921,0.00182696,0.0051325,0.000915289
-0.00561883,-0.0121377,0.00265225,0.0023898,-0.000314116,-0.00238109
0.00825795,-0.000391559,0.00583168,-0.00230125,-0.00341016,-0.006338
0.00614557,-0.00145278,0.00903647,0.00227383,-0.00128597,-0.00511241
-0.00672172,-0.0100113,-0.00377712,0.00457408,-0.00538999,-0.00221443
-0.0120372,-0.0110713,-0.00165429,0.00251451,-0.00723678,0.000102997
-0.00446401,0.000705086,0.0164609,0.00382277,-0.000725478,-0.00707877
0.00181739,0.0070755,-0.00278806,-0.00209254,0.00273991,-0.00402308
-0.000355337,0.0134739,-0.0103182,-0.00557199,0.00275919,0.00106561
0.0199789,0.0124154,0.0047255,-0.000702351,-0.00405502,5.53131e-05
-0.00346499,0.00816074,0.00466427,0.00318167,-0.000908285,-0.00239658
-0.015068,0.000727013,0.0249708,-0.00318381,-0.00608009,0.000176787
0.0199624,0.0177507,0.00148569,-0.00689143,0.00887775,0.00100505
0.0347806,0.0369366,-0.0167494,-0.0068789,-0.00282821,-0.00410759
0.00189877,0.0295287,0.00881827,0.000548467,-0.00325909,-0.00291848
0.00500538,0.00279891,-0.00381779,0.00801408,-0.0104432,-0.00926852
-0.000326625,-0.0185586,-0.00263186,0.0063495,0.00258851,-0.00956941
-0.00249019,-0.0196345,-0.00797532,-0.00293978,0.00544024,0.00340652
-0.00676762,-0.0121602,-0.0112436,0.00385001,-0.00852928,-0.00185657
0.00395317,-0.00894488,-0.000540139,-0.000396132,0.00574455,-0.00414062
-0.0110261,0.00813708,-0.0124603,0.00247464,-0.00575423,-0.000696898
-0.012115,0.0124029,-0.0167652,-0.00270817,0.000316679,-0.000869632
0.0188349,0.00919027,-0.00808134,0.00286165,0.00163251,-0.011387
0.0102391,-0.00577585,-0.0187028,0.00462781,-0.00200963,-0.00960779
-0.0302804,-0.0388631,-0.0207771,-0.0085209,0.000990987,-0.0106611
-0.000237825,-0.0324164,0.0134833,-0.000119761,-0.00494161,0.00455379
0.0178763,0.00601871,0.0100981,-0.00848193,0.00328243,0.00484073
0.0114878,0.0284544,0.00885876,0.00214824,-0.00915658,0.00197089
0.0284895,-0.00147764,0.0037754,0.00524308,0.00154567,-0.0139669
0.000786751,-0.0121367,0.00480876,-0.00131133,-0.00176406,-0.00676823
0.012489,-0.0110833,0.00164126,0.00271073,-0.000993729,-0.00975418
0.0316441,-0.0217851,-0.00142317,0.000528604,-0.00569865,-0.0199513
-0.0034598,-0.019606,0.00804806,0.000924051,-0.001524,-0.0071218
0.0281055,-0.00265751,-0.0603257,-0.00864813,0.0165948,0.00739646
0.0962771,0.0549589,-0.0689915,-0.0145595,0.0140164,-0.00194454
0.0514619,0.0442939,-0.0787067,0.0104061,-0.00788495,0.00127101
0.0547283,0.0688768,-0.0692378,-0.00393309,-0.00212294,-0.00525272
0.0783673,0.0294006,-0.0325685,-0.00798249,0.00484079,-0.0159552
0.0583664,0.00598906,0.0102484,0.00956778,-0.02149,-0.011073
0.0306587,-0.0142835,0.0113435,0.0278835,0.0038054,-0.0128251
0.0326316,-0.0239437,-0.014229,-0.00245917,0.0111562,-0.0107024
0.0247837,-0.0229841,-0.0794389,0.000186563,0.00847071,-0.00666976
0.0142592,-0.00371243,-0.0593044,-0.0113313,-0.00253412,-0.000573158
0.00596614,0.0241304,-0.0231888,-0.00381199,-0.00185555,-0.00766015
-0.0174792,0.0294867,-0.024379,-0.00851943,-0.00966847,-0.00428426
-0.0164802,0.0113098,-0.0338733,-0.00100362,-0.0020189,-0.0144519
-0.0195447,-0.00573794,-0.0102683,0.0146139,0.00433764,-0.00659323
-0.00923659,-0.0101199,-0.0678963,-0.0129474,-0.0012638,-0.00422871
0.00905746,0.0048716,-0.039077,-0.0122129,-0.00989592,-0.0027051
-0.0716528,0.0466645,0.00201937,-0.00464466,-0.0414011,0.00946808
-0.0358512,0.0211917,0.1113,0.0222796,-0.00207692,0.00735235
0.0297276,-0.0142443,0.0337789,0.00344034,0.0179817,-0.0073911
0.0187724,-0.0132555,-0.0164863,-0.0110835,0.00833595,0.00023818
0.0124483,0.0102668,-0.00704729,0.00467657,-0.00949451,9.70364e-05
0.0136689,0.000698739,0.0197307,0.0079212,-0.00727409,-0.00786829
0.093304,-0.0218711,-0.0247006,-0.00232261,0.0032939,-0.024673
0.0338771,-0.0345716,0.016828,-0.00879428,-0.00747669,-0.000256181
-0.0224557,0.00289159,0.0366776,-0.00102666,0.00379893,-0.00301015
-0.00461946,-0.0153583,-0.00801491,-0.0155792,0.00182199,-0.0051266
-0.00754103,-0.0152767,0.037919,0.0063327,-0.00763458,-0.00503647
-0.0065747,0.0295519,0.0173299,0.00098525,0.00128016,0.0139848
-0.0205921,0.0177649,-0.00935585,0.0005638,0.00439218,0.00893152
0.043361,0.00917909,-0.0047875,0.00525801,0.0091317,0.00268459
0.0327142,0.00064521,-0.00263504,-0.0356959,-0.0366519,0.00320244
0.00829861,0.0305954,0.00990073,0.0184239,0.00839677,-0.00567663
0.0167589,0.00493791,0.00155014,0.00145388,0.00149158,0.00123084
-0.0493739,0.00603554,-0.0104584,-0.00547281,-0.000923902,-0.0100064
0.0369347,0.0198548,-0.0112919,-0.0162249,-0.00992972,-0.00344515
0.0274951,0.0263146,0.013204,0.0161585,0.00513229,-0.00603604
0.0334851,-0.0261422,-0.0494708,-0.0129926,-0.0080038,-0.0449133
-0.00476095,-0.00472022,-0.0326566,-0.0191406,-0.0133393,-0.0202471
-0.0894427,0.0179368,0.0587643,0.0220717,-0.0320103,-0.0307291
-0.0629941,-0.0163152,0.0302363,-0.0146688,0.0288291,-0.0208091
-0.0685715,-0.00463619,-0.012597,-0.0177293,-0.0164022,-0.00612378
-0.0203809,0.00607935,0.0270453,-2.35438e-05,0.0121377,0.00886416
0.0484493,0.00376608,-0.0442679,-0.0110622,0.00512579,-0.00162446
-0.000338135,-0.00253958,-0.00594482,0.00536332,-0.0193374,-0.0052942
0.0179952,0.00178353,0.0304219,0.00201957,-0.0092704,-0.00317645
0.0179879,0.0124611,0.0282172,0.00822142,0.00604165,-0.00861931
0.0229107,0.00806726,-0.039049,0.00124498,0.00938806,-0.00285983
-0.0231747,-0.0282889,-0.080657,-0.0161778,0.00457439,0.0171051
-0.0208831,-0.00154369,-0.0562456,-0.000396475,-0.0195048,0.0154173
0.0242632,-0.0313665,0.0124957,0.0109688,0.0104324,-0.0241357
-0.0213915,-0.0120609,0.0378445,-0.0287164,-0.00699642,-0.00874043
0.025231,-0.022853,-0.00464797,0.0173363,-0.00909013,-0.00012958
-0.00771537,-0.00571424,0.00793779,-0.00247206,0.00073579,-0.0091958
0.0380103,-0.0111158,-0.00681388,-0.00117868,-0.00491422,-0.0112245
-0.0235599,-0.00993393,0.0314115,0.007606,-0.0133463,-0.00918627
0.0126516,-0.0302582,0.0306094,0.00957543,0.00908503,-0.00577378
0.00280972,-0.0356639,-0.0110635,-0.0158808,0.00929055,-0.0162855
0.010965,-0.0069416,-0.0753246,-0.0130416,0.0330542,-0.0172436
-0.0440212,0.0434204,-0.00961267,-0.00988555,-0.0228631,-0.000630617
-0.0360997,0.0488899,0.0673099,0.0155671,-0.000916928,-0.00400722
0.0384209,0.00502482,0.0603946,0.0200022,0.0151832,-0.0161082
-0.00765257,0.00498474,0.0174841,-0.0160753,-0.000239491,0.00300467
-0.00356311,0.00493166,-0.0113493,-0.00575042,0.0189065,0.00794542
0.0496016,-0.00154941,-0.0292713,-0.0072054,-0.000440538,0.00648272
-0.081137,0.0413645,0.0201775,0.000247493,-0.0212024,-1.28746e-05
-0.00630955,0.0104051,0.0633972,-0.0124764,-0.00545004,0.0100543
0.0229154,0.0176815,-0.0391125,-0.0183302,0.0212226,-0.00117731
-0.0398955,0.0134724,-0.0297037,0.0104202,-0.0158584,-0.00560951
0.0199745,0.00494182,0.00476598,0.0158601,0.00422943,0.0131519
0.0186981,0.0176973,-0.0316483,0.00131664,0.00733691,-0.0163319
-0.0247843,0.0306071,0.00122521,-0.0115848,-0.0185068,0.00716269
0.0636372,-0.0303427,0.00408876,0.0207414,-0.00553921,0.0108311
-0.0234087,0.0114715,0.054778,0.00909312,-0.00154489,-0.00639427
0.0709916,-0.021835,-0.0141014,0.00188419,0.0181909,-0.0122879
0.0100651,-0.0464101,-0.0440868,-0.00408587,-0.0332506,-0.0276109
0.00480708,-0.00900347,-0.0358033,-0.0131951,0.00525385,-0.0185664
-0.0176872,-0.0154299,-0.0550769,0.00729907,-0.052907,-0.0638417
0.01743,-0.0293536,-0.0612666,-0.0276156,0.00386399,-0.0431851
-0.0758566,0.0231895,0.0139055,-0.0073476,-0.0381186,0.00572193
-0.0146475,-0.000214015,0.0954872,0.0334339,-0.00420582,-0.0078516
0.0480031,-0.00993651,0.0605262,0.0011896,0.0203594,-0.00899208
-0.0504763,-0.0420354,-0.0122893,0.0242636,-0.00952584,0.033621
0.0122293,-0.0186334,-0.0410526,-0.000607163,-0.0164947,0.0225507
-0.0064768,0.0338532,0.033328,0.0122163,-0.0183551,-0.00469029
0.0562375,0.011334,0.0102008,-0.0118801,0.0199859,-0.0212035
0.00576621,-0.0175803,-0.0528379,0.00792587,-0.00708619,-0.00550008
-0.0311877,-0.00250007,0.00248398,0.003418,-0.0227062,-0.00629759
-0.00212424,0.0103802,0.0505903,-0.000128999,-0.010534,-0.00500751
-0.0096384,-0.0109909,0.043221,0.0108882,-0.00397387,-0.00818133
-0.0426906,-0.0269927,0.0410641,0.00159484,-0.00890666,-0.0113088
-0.0831781,-0.0344382,0.0420299,0.0230438,-0.0023354,-0.0130918
-0.0221156,-0.0923737,-0.075964,0.0347963,0.0263596,-0.0171643
0.0598874,-0.27753,-0.24434,0.0105595,0.0249142,-0.0299071
0.089219,-0.377027,-0.319445,-0.0216408,0.00835156,0.0296
0.412565,-0.278867,-0.245147,-0.0404343,-0.0118391,0.0571899
0.708679,-0.0879393,-0.278399,-0.0751012,-0.0389529,0.0346639
0.324227,0.0237957,-0.0775567,-0.00805347,-0.128942,0.0321014
0.0808251,-0.0364121,0.20613,0.00684278,-0.0226473,-0.00577855
-0.00930012,0.0264888,0.0964024,-0.0685655,0.032353,-0.0052973
-0.0646922,0.095957,0.0925398,0.0191869,-0.024159,-0.00851965
-0.172172,0.131324,0.112208,0.0292312,-0.00585961,-0.0047375
0.0122199,0.113045,0.123702,0.0413605,0.0276924,-0.00401473
0.0132704,0.0318689,0.128506,0.0225838,0.00885415,-0.0323033
-0.0233194,-0.0397675,0.0743409,-0.00248663,0.027103,-0.0208385
0.0192955,-0.0013519,0.0699776,-0.00329717,0.0145844,0.0101854
0.0566519,0.0605847,0.0750581,-0.00607808,-0.00249898,0.00409245
0.0340437,0.0434441,0.0376911,-0.0120438,-0.00366545,-0.0140395
0.0180792,0.00394509,0.044296,0.00546752,-0.00760698,0.00115895
0.0691234,0.0572796,0.0227713,0.00405376,0.00364637,-0.00208068
0.685005,0.171855,-0.162642,0.155291,0.0892228,-0.0347521
0.6846,-0.399531,-0.713463,0.240779,0.223145,-0.0740865
1.52621,-0.994039,-0.68402,-0.0259823,-0.0594946,-0.0679287
3.56341,-0.312315,0.31498,-0.322381,-0.631709,0.206404
3.11217,0.922259,1.18569,-0.292371,0.0227165,0.239781
3.73235,0.175558,1.43966,-0.0385045,0.229604,-0.100826
1.41961,0.0671261,1.3505,-0.0283058,0.0671813,-0.0394545
-0.424224,0.185856,1.25522,0.118962,-0.0571576,-0.0709081
0.0827033,0.100089,0.686053,0.0961158,0.0355787,-0.0695856
0.294587,0.010613,0.312403,0.0581803,0.0416037,-0.113831
0.8284,-0.163125,0.148847,-0.0108612,-0.00614762,-0.0536304
0.679944,-0.347887,0.106752,0.0951223,-0.0719327,-0.0647199
0.488455,-0.269685,0.150401,0.0402092,-0.0604346,-0.00774097
0.398105,0.0423138,0.158725,0.0687944,-0.00504231,0.0400144
0.279547,0.0793893,-0.0706072,0.0113674,0.121932,0.0289093
0.838746,0.0404606,-0.0992457,0.0154146,0.103385,0.0211167
0.741375,0.116557,0.00353448,0.0271201,0.0708666,-0.0503865
0.641238,0.0717809,0.0109299,0.0261496,0.0539424,-0.0329767
1.98353,0.0301074,-0.0265101,-0.0255882,-0.0607383,0.0618118
1.8234,0.00984621,-0.0761277,-0.0148512,-0.00642693,0.115587
1.03606,-0.00982865,-0.0618542,0.0035519,-0.0429234,0.027284
0.493339,-0.0316464,0.0548531,0.0134637,0.0408046,0.0168968
0.114865,-0.0314244,0.0181762,-0.0330892,0.0290186,0.0196499
0.0519477,-0.0826581,0.0139991,0.00222129,0.01478,0.0303518
0.260635,0.042856,-0.20079,0.00852692,0.188021,0.073676
-0.0771307,-0.11251,-0.00872805,0.0403622,0.0791501,-0.0790178
-0.42319,-0.104126,-0.861632,-0.0319491,-0.0815845,0.0234978
0.227495,0.187613,-1.12286,-0.084396,-0.142669,-0.0207756
0.235575,0.256009,-0.490748,0.0491843,-0.159969,0.0140446
-0.218691,-0.0351473,0.187902,0.0442311,-0.109139,-0.0087887
-0.036322,-0.0505015,0.0391034,0.0282486,0.0818497,-0.0582517
-0.0835314,0.0647876,-0.0259297,-0.0145549,0.00801328,-0.0168688
-0.0697146,-0.0185408,-0.0242676,0.00836617,0.00656113,-0.0343035
0.183601,0.123236,-0.083002,0.0320907,0.0134634,0.032509
-0.434625,0.00219046,0.0671881,-0.0206029,-0.0634617,-0.00427294
-0.269554,0.0212669,0.0516542,-0.0100113,0.0112634,-0.0544747
0.196769,0.0945017,-0.016525,0.0128594,0.0298007,0.00946093
-0.0760732,0.0508971,-0.0247427,-0.00372815,-0.0220944,0.0771734
0.13483,0.0130249,-0.210685,0.04016,-0.0851118,-0.0158367
0.00070793,0.0230885,-0.0114526,-0.0826999,-0.043578,-0.0475043
0.140303,0.0432798,-0.0110614,0.0298451,-0.035174,-0.00219697
-0.152103,0.00843371,0.093846,-0.00269917,0.00766018,-0.058726
0.433426,0.017457,0.00943547,-0.0192578,0.00977674,-0.00186497
-0.132613,-0.0185027,-0.0298462,0.0689958,-0.0163434,0.0149359
-0.0312719,-0.00466047,-0.0113926,0.0469185,-0.00127017,0.015242
-0.0522867,-0.0398042,0.0411119,-0.0178643,0.00254428,-0.0270556
0.0970879,0.0541296,0.0667053,-0.0149585,-0.00069043,-0.0383562
-0.00772681,0.0103044,0.00462569,0.0033803,-0.0380685,0.0152508
0.0157797,0.0637087,0.0107759,-0.000825465,-0.00674665,0.000806749
-0.0461261,-0.0441474,0.00269581,0.00241178,-0.0249638,0.0228472
0.187472,0.0796412,0.0337549,0.0158201,0.0258206,-0.0221719
0.0887669,0.0648768,0.0997241,0.0122271,0.0144442,-0.0229753
0.0400451,-0.0495927,-0.0193826,-0.00580055,-0.026197,-0.0237241
0.0211778,0.0252748,0.0260058,-0.0181196,-0.0203397,0.0274028
-0.0301408,-0.0270709,0.0015781,-0.00488287,-0.0195898,-0.0116374
0.0189855,0.00496592,0.0175815,-0.00526732,-0.00275415,-0.0125319
-0.33346,-0.0416922,0.0614399,0.0264863,-0.0156246,0.0269311
-0.283595,-0.0994651,0.0310137,-0.00355446,-0.0664493,-0.0354142
0.0783057,0.00909191,-0.0409888,0.0102468,-0.0278783,0.0277985
0.0700064,0.0497484,-0.00709129,0.0439966,0.0337148,-0.0245263
0.0678054,0.0507984,-0.0188608,0.0279561,0.0184467,0.0160566
0.301491,0.0322531,-0.138601,-0.0224377,0.0523995,-0.0241813
0.175038,-0.0305653,-0.0756287,-0.0466536,-0.0310959,-0.0214764
0.391436,-0.0339049,-0.0587685,-0.0197978,0.0326876,-0.0134866
-0.0833545,0.0221173,0.00747033,0.0638123,0.0292036,0.0464317
0.0402536,-0.0292402,0.0136102,0.0628216,0.0359793,-0.0708036
-0.0929325,0.0199914,0.00958609,-0.0226525,0.0204024,0.014127
-0.104506,-0.0557873,0.0410185,0.0151134,-0.00816399,-0.0324973
-0.0462905,-0.0281754,-0.0262552,-0.00140238,0.00719345,-0.00697243
-0.0164152,-0.0751794,-0.0151546,0.00650775,-0.0113292,-0.00096339
-0.0418355,-0.0772524,0.0104076,-0.00353795,0.00203672,-0.00125599
-0.0331532,0.00929893,0.0291099,-0.00549102,-0.00237197,-0.00400984
0.0348412,0.00598476,-0.00373451,-0.00643283,-0.00240099,-0.0125574
-0.00452232,0.000692481,0.00683587,-0.00478387,0.00572276,-0.00325429
-0.0983198,0.00288945,0.00112903,0.000528067,-0.00367159,-0.0026505
0.0048847,0.00597255,-0.0241489,0.000951707,0.00175717,-0.00610709
-0.0153118,0.0006611,-0.0156413,0.00192207,-0.00165489,-0.00459099
-0.0162998,0.00282159,-0.00283959,-0.00232181,-0.00173518,-0.00603551
0.00916985,0.0134516,-0.0209746,-0.00018549,0.00379068,0.00425541
-0.024851,0.0124315,-0.00827417,-0.000967622,0.00400573,-0.000255704
-0.0322102,-0.0056901,0.00997845,0.0016987,-0.00426137,-0.0019905
0.0156664,0.00279642,-0.00271718,0.00482219,0.00304502,-0.00540459
-0.0077413,0.00709667,0.00250831,0.00284788,0.00183874,-0.00514364
0.00290593,0.00388273,0.00149952,0.000127614,-0.00358209,-0.00483769
-0.0182209,0.0520139,0.0278197,0.00122392,-0.00935864,-0.0193126
-0.0247637,-0.00463105,0.00786219,-0.00204656,0.00335956,-0.00106567
0.145326,0.035711,-0.061211,0.0207375,-0.00164396,0.0104412
0.192728,0.102045,0.0197394,0.0510792,0.0215533,0.012356
0.165683,-0.0219454,-0.0372557,0.00357866,0.0396857,-0.00379974
0.145647,-0.012257,-0.00320277,-0.00222304,-0.0244879,-0.0376922
0.0669728,0.0818397,0.0172632,0.0501893,0.0155547,-0.00334305
0.508523,0.134723,-0.0936154,-0.0505838,0.0820582,0.04589
0.136962,0.0485796,-0.0356812,0.0510996,0.0697938,0.00747836
-0.167663,-0.062233,-0.00725669,0.0413265,-0.0345988,0.00513446
-0.161884,0.0617872,0.0571361,-0.0123408,0.04887,0.015635
0.178779,0.0731903,0.00598375,-0.00753185,0.0354816,-0.0475401
0.0657403,0.003826,-0.00360652,0.0299232,-0.00440717,0.024635
-0.0268734,-0.0388009,0.0144875,-0.000149965,0.0103899,-0.0148143
-0.0471265,-0.0163593,0.0110608,0.00236246,-0.0134934,-0.0300636
-0.00568429,-0.0004027,-0.00918849,-0.00411856,0.00650007,-0.0103746
0.0538374,0.0358224,-0.0369795,0.0139582,-0.0253422,-0.0180284
-0.235588,0.0158636,0.0304464,0.0102013,-0.0938721,0.0317551
-0.284427,-0.119689,0.0717427,-0.0298983,-0.0644222,-0.0480011
0.331907,0.0195841,-0.0401081,0.036415,-0.0438831,-0.0161126
0.04332,0.043347,-0.0146305,-0.0123979,0.00441086,0.00617629
-0.0226422,0.0274054,0.00338928,0.0291754,0.00214565,0.00891054
-0.0174638,-0.0153633,-0.0176837,-0.0316118,0.0299736,-0.0163807
-0.148523,0.0253202,-0.0216425,0.00515386,-0.00396377,-0.00450909
-0.375088,0.0960962,0.0368822,-0.000376463,-0.0252545,-0.0153092
-0.639894,-0.156993,-0.0340531,0.0610673,0.0219309,-0.0100324
-0.268262,-0.379494,-0.0525876,0.0827754,0.0114353,-0.0822247
-0.280673,-0.536375,0.0242403,0.00994977,-0.0521715,-0.0355687
0.205164,-0.408588,0.00706866,0.0149707,-0.00620919,-0.0418937
0.615028,-0.244525,-0.0672518,0.0451961,-0.0401926,0.0493478
0.25071,-0.17449,0.118977,0.0267833,-0.0480626,0.105129
0.102315,-0.0766482,0.418022,-0.0183307,0.0331073,0.0458252
0.00523253,-0.021072,0.392723,-0.0810082,0.0445263,0.0223588
0.0237101,0.0705599,0.26719,-0.0795692,0.0575501,-0.0197244
-0.152223,-0.0770437,0.0815773,-0.061769,0.0316609,-0.0317386
-0.132233,-0.128399,0.0435207,-0.0340543,0.00476339,-0.0205685
-0.0216406,-0.100779,0.00422418,-0.0116771,-0.0169938,-0.00440729
0.166658,-0.062558,-0.0487416,0.0172596,-0.00484747,-0.00962943
0.076264,-0.0421458,-0.0214331,0.0170623,-0.00614825,0.00316304
0.00843716,-0.036648,0.03918,0.025315,-0.00568059,0.0117636
-0.00213668,-0.0013708,0.0495958,0.00466925,0.0123811,0.0118448
0.0147147,0.0647773,0.010766,0.00640053,0.0097774,0.00290138
0.135182,0.176849,0.0115583,0.0403226,-0.00234827,-0.0513667
0.0262592,0.0700575,-0.0191421,0.0563934,0.0577766,-0.131157
-0.158343,-0.292258,-0.209805,0.0372181,0.0396651,-0.0695401
-0.109688,-0.359687,-0.263675,-0.0026255,-0.0400834,0.0478328
-0.047814,-0.318815,-0.0767294,-0.0249055,-0.066118,0.104509
-0.0714032,-0.181819,0.0643949,0.0132303,-0.0331806,0.047259
0.0498197,-0.0890634,0.0151003,0.0252502,-0.0429939,0.0603001
0.157764,0.0992376,0.231178,0.0104094,-0.0276863,0.0417926
0.0456022,0.0322651,0.367953,-0.00690594,0.0214838,-0.0139562
-0.0944348,-0.0553429,0.299619,0.00310791,0.032307,-0.0291939
-0.0305156,0.0639151,0.108899,-0.0218549,0.00156814,0.00634462
0.126309,0.11512,0.136933,-0.042506,-0.0215707,0.00883842
0.238791,0.0895785,0.24009,-0.0244249,0.061796,-0.0634049
0.000586598,-0.0439208,0.152452,-0.0382296,-0.0303267,0.052569
0.0648788,-0.0868972,0.0386485,0.0266316,0.00527415,0.0105129
-0.00233702,-0.00570101,0.0165005,0.0144262,-0.00799358,0.0202533
-0.203004,-0.112457,-0.0327054,0.00580764,-0.0281596,-0.0671326
0.129839,-0.029594,-0.150596,0.037898,0.049286,0.0448559
0.0257021,-0.124488,-0.0948108,-0.020066,0.00214317,0.00846583
-0.0511456,-0.140488,-0.115297,-0.00249416,-0.0052495,0.00386953
-0.0208265,-0.0282262,-0.0443234,0.0291576,-0.0344661,0.0209254
0.16831,0.307154,0.0161789,-0.0240811,-0.000920177,0.0154645
-0.068147,-0.100633,0.0670855,0.0737113,-0.000230283,-0.0707114
-0.145005,-0.230606,0.233251,-0.049253,-0.0366633,0.000858963
-0.0167731,-0.244789,0.11843,-0.0136555,-0.0164165,-0.0130544
0.0740662,-0.102731,0.150972,-0.0256116,-0.0132742,0.0350595
0.124044,-0.0515322,0.129459,0.028307,0.0302634,0.00137377
0.140014,0.0114663,0.12163,0.0190683,0.0283774,-0.0194537
0.105958,0.0168433,0.127881,0.00366005,0.0102796,0.0303765
0.133135,0.0223217,0.217695,-0.0109813,0.0111994,-0.0187474
-0.0177399,-0.213787,0.132116,-0.0721971,-0.00184047,-0.0661215
0.0709242,-0.220508,-0.0074741,0.0208816,-0.0217131,0.00270396
0.226261,0.0473861,-0.0695325,-0.0187397,-0.0403014,-0.0265289
0.748018,-0.0765557,-0.471718,-0.0864273,0.065661,-0.184738
0.371836,-0.587879,-0.43562,0.0873315,0.101598,0.0257568
-0.370056,-0.445489,0.0361384,0.185968,0.100441,0.161159
-0.696961,0.250111,0.00796777,0.0559275,-0.0736153,0.176892
0.362974,0.808267,-0.439364,-0.131246,-0.171997,-0.139782
0.299565,0.131953,0.0648192,0.0370584,-0.0261104,-0.071744
-0.115685,-0.036083,0.307959,0.0574576,0.039401,-0.000866175
-0.124087,0.0971523,0.138248,-0.00944225,-0.0243509,0.0345567
0.0869414,0.0884653,0.148711,-0.0680623,-0.0527845,-0.101467
0.206822,-0.283456,0.0949457,-0.0309563,0.00913782,-0.00439548
0.178631,-0.0344121,0.169083,0.012446,0.00887249,0.0729386
0.0342309,0.0990382,0.0640395,-0.021379,0.029345,0.0588534
-0.116233,-0.0191539,0.214891,0.0167237,-0.0189412,-0.046743
0.161186,0.0965421,-0.0871905,-0.0333296,-0.043493,-0.0382711
0.107691,0.107198,-0.124854,-0.0540308,0.03344,0.0582295
-0.134199,0.0272725,-0.120968,0.0443191,0.0317765,0.0405876
-0.393429,-0.0257126,0.0098233,0.0358225,-0.0253484,0.0476565
-0.064591,0.277243,-0.0849323,0.0240542,-0.0211975,-0.0833088
0.00434158,0.0157386,0.0623289,0.0123521,-0.0497819,-0.0596442
0.143243,0.0905084,0.120062,-0.0152303,0.0155072,0.00505418
0.0191509,0.0936626,0.037305,-0.0234625,0.0426392,0.0203678
-0.074189,0.0305321,-0.0641388,0.00250849,0.0220299,-0.0360192
-0.0673622,-0.0355648,0.0143123,0.00937712,-0.0602901,0.00558519
-0.0146734,0.0254134,0.0889061,0.0104666,-0.0123866,-0.00778711
0.0158861,0.0210188,0.032421,-0.0120932,0.00275284,-0.0193999
-0.0149083,-0.0355331,0.0551097,-0.0058696,-0.00426349,0.0100962
-0.0278351,0.00288364,0.0281035,-0.000445783,0.00791071,0.00939667
0.011176,0.0710893,-0.0469869,-0.00535131,-6.81877e-05,-0.0269254
0.00395014,-0.0260293,0.000628741,0.00571907,-0.019169,-0.0136974
-0.0141798,-0.0324292,-0.00153331,0.0121448,-0.00114314,-0.00780743
-0.00568069,-0.00574109,-0.00808693,0.00674132,-0.00896704,0.00313222
-0.0152051,-0.0281429,0.00484262,0.00181204,0.00307375,0.00163245
0.01352,0.01134,-0.00599022,-0.00188589,-0.00776565,-0.00309896
0.0456855,0.0135086,0.0272415,0.00331178,0.00586064,-0.00582355
0.0243161,0.0370053,0.015254,0.000920981,0.00849696,-0.00623965
-0.0164377,-0.0303278,-0.0229258,-0.00112343,-0.00516735,-0.006284
0.0338078,-0.0185683,0.00389655,0.0143492,-0.0153163,-0.00934124
0.0257215,-0.024843,0.0776312,0.0177881,-0.00574222,0.0154055
0.027551,0.0241977,0.0228283,0.00049156,0.00637069,-0.00296223
0.0146288,-0.004669,0.0026657,-0.0032275,0.00845174,-0.00288486
-0.013111,-0.000388008,-0.00387367,-0.00864524,-0.00235298,-0.00667965
-0.0186594,-0.019672,-0.0390303,0.00396395,0.00148408,-0.00576943
0.0167141,-0.00682047,-0.00479073,0.00278199,-0.0188206,0.00141954
0.0243171,0.000692613,0.0186942,0.00160003,-0.00172365,0.000285983
-0.000321074,-0.0185523,-0.00157301,0.00565112,-0.00455257,-0.00804472
-0.0205975,-0.030295,-0.00584592,0.0045462,0.00033921,0.00516665
-0.0164201,0.00492238,-0.0231538,0.000624001,-0.00293072,-0.0017972
0.0146821,-0.013198,0.0123378,-0.0046342,-0.0113872,-0.00858176
0.0348079,-0.00897617,-0.00791407,-0.00829923,-0.00470865,-0.0125832
0.00610083,-0.0634061,0.00728898,0.000537038,0.00116712,-0.00122243
0.0388539,0.0187259,-0.0465413,-0.000297785,-0.00496432,0.0114734
0.0113785,-0.0100233,-0.00585754,0.00103477,-0.00412627,-0.00199854
0.020882,-0.00364763,-0.0208212,0.00230899,0.00613524,-0.00633478
0.0463275,-0.00263572,-0.0421018,0.000131577,-0.00395882,-0.0126709
0.0635389,-0.00900928,-0.0142162,0.00273046,0.00338353,-0.00369412
-0.00150376,-0.0228579,-0.0207813,0.00124872,0.0108879,0.0196562
-0.0442906,0.0294596,-0.0533342,0.00445083,0.00373216,0.0144221
-0.0441053,-0.00893556,-0.0188946,0.00830755,-0.0271927,-0.00818282
-0.00348139,-0.0228118,0.00485413,0.0164622,0.00141464,-0.0164712
-0.000521876,0.00168189,-0.0369638,0.00258344,-0.00444861,0.00812799
-0.00245528,0.0263057,-0.00614509,-0.00926787,-0.011869,0.00971532
-0.0407485,0.0178103,0.00551785,0.00122228,0.00534482,0.00100374
-0.0237796,0.0113646,-0.00719536,0.00643307,-0.0050354,-0.0164558
0.0191568,-0.0227522,0.048745,-0.0025782,-0.0261581,-0.0135726
0.0118647,-0.0344459,0.0776407,-0.00462455,0.00272456,0.00256658
-0.0138428,-0.0227176,0.0539625,0.00642776,0.0142971,-0.0073455
-0.0173173,-0.0292048,0.00804884,-0.000267148,-0.00468107,-0.00508726
-0.0140084,-0.0216982,0.0261762,0.00297892,-0.0169571,0.00713265
-0.0106415,0.0125273,0.0516077,0.00844216,-0.000305668,0.00820899
-0.0152075,0.0177807,0.000273704,0.00164706,0.00425479,-0.00797361
-0.011969,-0.000365238,0.00894927,-0.000462651,-0.00248605,-0.0104062
0.00521109,-0.0184965,0.0326375,-0.000196159,-0.00371784,-0.00718516
-0.00230994,-0.015305,0.0219042,-0.00185803,0.00187683,0.00302064
0.013492,0.0188071,-0.0113791,0.00157484,0.0015378,0.00399476
0.00399549,0.000684491,0.00579879,0.00376388,0.0017153,-0.00105035
-0.00245001,0.0113551,-0.00391189,-0.000573307,-0.00233543,-0.0011971
-0.00570801,-0.0217688,-0.0111902,0.00367737,-0.00615446,-0.00622934
0.0199267,-0.0260429,-0.000380178,0.0115714,0.00331895,-0.00912005
0.056932,-0.0784885,-0.0437087,-0.00174308,0.0497678,-0.0748869
0.0942899,-0.195849,-0.55673,-0.0219857,0.0367191,-0.104608
0.201255,-0.192471,-1.0222,-0.0443856,-0.0149027,0.0241664
0.446546,-0.199311,-1.16227,-0.0218816,0.0242311,-0.00871772
0.258438,-0.379525,-1.06458,0.0417939,0.0176277,0.0275721
-0.0622262,-0.355147,-0.701592,0.0802341,0.0213451,0.0705813
-0.249901,-0.210239,-0.382701,0.0799156,0.00475174,0.0557265
-0.269746,-0.0773587,-0.149647,0.0712447,-0.0307663,0.0222702
-0.0586304,0.166037,-0.147228,0.00656832,-0.064608,0.00126672
0.2159,0.230871,-0.215001,0.000849307,-0.0235641,-0.00667137
0.178855,0.268353,-0.17692,-0.0114338,0.032247,-0.00365776
0.00929169,0.0530054,-0.00413695,-0.0177295,0.0278418,-0.0169501
-0.19037,-0.139967,0.122443,-0.0123177,-0.00233507,-0.0143695
-0.0949699,-0.0867829,0.0348439,-0.0105035,-0.0236123,-0.0117114
-0.00355161,-0.0612821,-0.00344333,0.000153188,-0.0453993,-0.000466049
0.103222,0.0860926,0.0205731,-0.0136203,-0.0148306,-0.00140965
0.0868889,0.050757,-0.0348177,-0.019295,0.0231923,0.00106353
0.0100946,-0.0122222,-0.0421755,-0.0118175,0.0261725,-0.00288343
0.0126893,0.0110968,-0.144888,-0.0131985,0.0248715,0.0059126
0.0104973,0.00467364,-0.154473,0.00106498,0.00183979,-0.00962812
0.0565282,0.0346064,-0.121373,-0.0102344,-0.0149199,-0.00938696
0.0502748,-0.0572005,-0.0898138,0.0148142,-0.00176251,-0.00698155
0.0218143,-0.0528164,-0.0386638,0.021187,0.0039551,-0.0128682
-0.0130387,0.00390607,0.00784998,0.0111793,-0.0226016,0.0206254
0.033021,-0.023827,0.0509408,-0.00697359,-0.0224763,0.00282979
0.0520721,0.000686222,0.0273469,-0.0191384,-0.0012216,-0.00617927
0.0953456,0.068887,-0.0477239,-0.012935,0.000147,0.00664812
0.026158,0.0977971,-0.0385547,-0.0111049,0.0193079,0.0228032
-0.0316731,0.0753263,-0.0856376,-0.00214863,0.0323959,0.00752997
-0.0609392,0.014324,-0.163347,0.00133467,0.00563537,-0.0142907
0.00700047,-0.0338619,-0.201246,0.0352197,-0.0154112,-0.0222938
-0.0278022,-0.0206028,0.0357334,0.0380892,-0.0278951,0.00520986
-0.066519,0.0148789,0.15075,0.00999542,-0.0121024,0.00824016
-0.0178497,0.0403738,0.090935,-0.013104,-0.00568174,-0.00820601
-0.0359969,-0.00020647,0.0889907,0.00227735,0.00589101,-0.00463516
0.0134419,-0.00470428,-0.0176376,0.000557631,0.00563124,-0.00685447
0.0714847,-0.0155925,-0.110304,0.0114432,-0.0117333,-0.000174344
0.121619,0.0153582,-0.103906,0.00909223,0.0107,0.0132454
-0.0278034,-0.0355552,0.0368979,0.0123803,0.0260151,0.00328988
-0.139238,-0.0898116,0.115898,0.00560292,-0.010631,0.00285882
-0.0646824,-0.0119105,0.103921,0.00683272,-0.0408748,-0.00737941
0.0821077,0.108595,0.0513328,-0.0185857,-0.0201561,-0.012492
0.038389,0.0958018,0.0469783,-0.0224701,0.0125852,-0.00117999
-0.0513536,0.0541455,0.0105861,-0.00976456,0.0325388,0.0119376
-0.204212,-0.0683948,0.117652,0.0112596,0.0187663,0.00104898
-0.219636,-0.0874445,0.21281,0.0172709,-0.0161307,-0.0075286
-0.0789789,0.00323518,0.206338,0.00974779,-0.0342384,-0.0111704
0.130629,0.0126019,0.155777,0.00245551,-0.018725,-0.0324587
0.181367,0.00283193,0.0887192,-0.0297569,0.00283657,-0.00535434
0.186575,0.0494759,-0.113502,-0.033229,0.0272251,0.0181171
0.0992638,0.126147,-0.288483,-0.0395914,0.0157405,0.019626
0.096394,0.0415577,-0.404406,-0.0103347,0.0166087,-0.00585854
0.0532607,-0.117386,-0.29776,0.033569,0.015777,-0.0169793
-0.0883828,-0.219479,-0.0988974,0.0492911,0.00521898,0.00341761
-0.110065,-0.186151,0.0140624,0.0370425,-0.00942878,0.00381029
0.0304866,-0.0506434,-0.0140715,-0.00114132,-0.0462338,-0.00171095
0.240947,0.0312878,-0.106771,-0.0184451,-0.0224368,-0.0306631
0.319672,0.00128703,-0.124444,-0.0144054,0.0112782,-0.0180286
0.239855,-0.0595028,-0.10298,-0.00846758,0.0287276,-0.0060634
0.226541,-0.0532391,-0.191751,-0.0266647,0.0155137,-0.00325507
0.315185,-0.0749182,-0.333382,-0.00901038,-0.00387815,-0.014125
0.370038,-0.115396,-0.244233,0.0120831,0.000475637,-0.0042277
0.268368,-0.0745525,-0.144444,0.0200323,0.00230085,0.0276906
0.271627,0.000226161,-0.140643,-0.00267334,-0.0236877,0.0121158
0.56993,0.0402639,-0.328902,-0.018883,-0.022309,-0.0627761
0.816509,-0.0199146,-0.426953,0.00452623,0.00629291,-0.0589138
0.678491,-0.142488,-0.332653,0.0145225,0.0432192,0.00943196
0.426531,-0.138929,-0.238527,0.00620177,0.0624076,0.0357755
0.265989,-0.0842353,-0.184991,0.00427928,0.0346529,0.0376577
0.101175,-0.024201,-0.133644,0.00337245,-0.00312433,0.037356
0.0564577,0.059149,-0.135419,0.0101656,-0.00281742,0.0175972
0.00571738,0.0774629,-0.0694852,0.0111244,-0.020283,0.0153828
-0.0078197,0.0679526,-0.0160513,0.0197357,-0.0150989,-0.0077213
-0.275762,0.236314,0.241487,0.0241948,-0.0164872,0.0807511
-0.369259,0.533378,0.259511,0.0430856,0.00705719,0.0808159
-0.0534027,0.39808,-0.00661002,-0.00269526,-0.0166696,-0.164469
0.351583,-0.0112589,0.0456417,-0.074126,-0.0608476,-0.161387
0.187729,-0.319418,0.290633,0.00716674,0.0442901,0.019561
0.0103833,-0.157836,0.375465,0.0185591,0.060466,0.0646896
0.087996,0.0246907,0.330764,0.0142751,0.00102723,-0.0274501
0.377739,0.12133,0.131422,-0.0423079,-0.0144867,-0.0433003
0.518182,0.115824,0.0977935,-0.0165233,0.083081,-0.0607421
0.196129,0.0479456,0.236995,-0.0111609,0.047017,0.0619975
0.0695691,0.290866,0.43261,0.0554738,0.0343055,0.0596784
0.00907724,0.317683,0.470673,0.0882884,-0.0500795,0.0114722
0.0483863,0.278103,0.45505,0.020883,-0.0374191,0.0212704
0.24371,0.34,0.505596,0.0760436,0.0556434,-0.0204737
-0.113079,0.206809,0.54359,0.0334445,-0.0539945,0.0247047
0.0146937,0.246962,0.347212,0.0217498,-0.0382084,0.0245267
0.00437412,0.16376,0.410752,0.0237489,-0.0200803,0.019801
0.0580002,0.0737963,0.299348,0.0276266,-0.0410519,0.030194
0.136525,-0.0217246,0.0758877,0.0103214,-0.0852525,0.0364119
0.182826,-0.178932,-0.00732622,0.0489974,-0.0897815,0.049246
0.297625,-0.223957,-0.0493429,0.0853666,-0.0857468,0.0434668
0.219475,-0.16602,0.0621762,0.0825703,-0.0595229,-0.0195805
-0.0365526,0.0992697,0.165274,0.0352766,-0.00596625,-0.0937208
0.243875,0.387175,-0.00542691,-0.0798365,0.0531054,0.0293158
0.128205,0.366661,0.43127,0.00369921,0.153203,-0.0630918
-0.240203,-0.0907218,0.15932,-0.00868177,-0.00371039,-0.0411267
-0.0234611,-0.0141694,0.0485186,0.0118185,0.0765262,-0.0293745
0.106571,0.192632,-0.141451,0.00342435,0.00661236,0.0323884
1.77441,0.735406,0.0407741,0.0668554,-0.0185198,-0.070365
-0.561226,-0.124746,0.111328,-0.0615012,-0.211609,0.0288471
-0.318702,-0.175559,-0.13104,0.0954741,0.0747393,-0.105554
0.00617759,-0.0227926,0.0166305,-0.0150295,0.0893081,-0.0649024
0.0287668,0.0456073,0.0461881,0.0184264,-0.0913232,-0.0291507
0.419484,0.0107287,-0.182908,0.0525001,0.00107947,-0.0389395
0.341518,0.115713,-0.0449812,0.00842631,-0.0304719,-0.0304719
-0.417784,0.0245535,0.0307638,0.0471655,-0.0505116,0.0525773
-0.177946,0.135476,0.0373552,0.00530165,-0.0125395,-0.0741684
-0.0927847,0.0243141,0.0341178,0.0506974,-0.0589928,-0.045944
-0.149998,-0.0249906,-0.0854401,0.0168909,-0.00515342,-0.0324225
0.0860659,0.0262689,0.00806524,0.0110883,-0.0463052,-0.0191099
0.00280251,0.0679413,-0.0213667,-0.0154539,0.0161318,-0.0308098
0.0577165,0.115817,-0.108015,0.0011934,0.0443264,-0.0431136
-0.113938,-0.0834964,0.0699974,-0.00596249,-0.0432569,-0.0441871
0.215041,-0.147148,-0.146322,-0.0435929,0.0108138,-0.0221447
-0.0819017,-0.0647209,0.436475,0.0441257,0.137567,-0.0802469
1.45354,-0.0233259,-0.272838,0.0720445,0.0831223,0.0558535
0.308889,-0.124944,-0.847016,0.0159199,-0.0214036,0.059301
0.447047,0.0281983,-0.564351,0.0450685,-0.110845,-0.0183884
-0.240286,-0.128128,0.14888,0.0758474,-0.214501,-0.0565065
-0.163694,0.047559,0.468562,-0.0393699,-0.00930685,0.0984626
-0.882232,-0.166997,0.245024,0.0252662,0.00298798,-0.0724579
-0.423337,-0.0545435,0.000272087,-0.0219966,-0.0354029,0.0222597
-0.584239,0.0687111,0.165548,0.0263966,-0.0257739,0.0249001
-0.928899,0.256045,0.243174,0.0113515,-0.0874143,0.168053
0.248549,0.00631899,0.275914,0.21566,0.573035,-0.531108
-0.68262,-0.0744347,0.119095,-0.0108266,0.066816,-0.0853989
0.635578,0.138982,-0.0504435,0.0377933,-0.0818482,-0.0289553
0.10856,-0.111178,0.218455,0.01167,0.0575239,-0.105078
0.320723,-0.0835319,0.237233,0.0300022,0.0456853,-0.11894
-0.439728,-0.296027,-0.046304,-0.00754499,-0.148573,0.0301675
0.416111,0.0978129,0.135982,-0.00128031,0.125498,0.011256
0.227773,0.073154,0.00294919,-0.00289345,-0.0970494,0.0094558
-0.135259,0.100219,0.051631,0.00349152,0.0219162,-0.0234711
0.0882916,0.0882422,0.0183541,0.0293002,-0.026511,-0.0695866
0.160449,0.129754,-0.0350659,0.112357,0.0170931,-0.0748165
0.187846,-0.176883,-0.0586184,-0.00180048,-0.0340074,-0.0944249
0.754228,0.172424,0.188047,-0.152717,-0.0742852,0.0506554
-0.260647,-0.0100388,0.474982,-0.0923066,-0.0104304,0.0207483
-0.293118,0.183153,0.373173,-0.0298802,0.0131338,0.0733771
0.854125,0.0863838,0.508446,0.0869571,0.190491,-0.0962831
0.508951,-0.43886,-0.682899,-0.0549941,-0.0339218,-0.0537722
-1.02195,-0.663301,-0.801498,0.111581,-0.057044,0.0570884
0.370786,0.0389384,0.0453739,-0.0817042,-0.0474798,0.0139695
0.820596,0.177046,0.416916,0.00469893,-0.0925637,0.0425029
-0.539062,0.0456175,0.41695,0.0348238,-0.00956544,-0.000643492
0.0666709,0.664464,0.270964,0.133039,0.0699525,-0.0265468
0.0840145,-0.102315,0.389257,-0.154981,0.110464,-0.157073
-0.638897,-0.878245,-0.158667,-0.112729,-0.0761836,0.00385797
-1.97365,-0.400661,-0.681756,0.364533,0.0410375,0.1866
1.00401,0.463629,0.0588819,-0.158428,0.0352262,0.00302941
-1.2079,0.111939,-0.430059,-0.0870469,-0.0740976,0.0725918
1.23087,0.133852,-0.28324,0.0693188,0.182785,-0.176599
0.176585,-0.133574,-0.34208,0.00625718,-0.0833166,0.0243419
0.0942833,0.320952,-0.0696748,0.0609618,-0.0285464,0.0605285
1.4637,0.643601,-0.0591616,-0.00685465,0.00116426,0.0498328
-1.24269,-0.390348,0.0346384,-0.052496,-0.0633755,-0.20904
0.839201,0.455,-0.0602776,-0.0113476,0.141523,0.000904799
1.0468,0.144436,-0.418621,-0.00604361,0.0786273,-0.0619371
-0.143909,-0.211099,-0.832128,0.0213273,0.00942415,0.00433975
-0.747561,0.101813,-1.13451,-0.058444,0.025188,-0.01033
0.00547446,-0.0152544,-1.17047,0.0867871,0.0114111,-0.11953
0.417487,0.0806365,-0.523135,0.099089,-0.0468668,-0.034623
0.343101,0.034825,-0.48572,0.0278118,-0.130664,0.0552288
0.570626,-0.196008,0.165173,-0.013446,-0.100432,-0.118968
-0.718035,0.0622281,0.064652,-0.00977838,-0.0379288,0.0370789
-0.731808,-0.165232,0.0981308,-0.110241,0.0559713,-0.0417167
-0.332129,-0.463795,-0.0341309,-0.0214884,0.0818143,-0.175387
0.141359,-0.19658,-0.347147,0.0525433,-0.0110647,0.103256
0.746269,-0.0085265,-0.057621,0.0254251,0.0213878,-0.0526947
1.05154,-0.153099,-0.133535,0.00274652,0.0602999,-0.0342673
0.166991,-0.260352,-0.153249,-0.00197059,-0.0418736,0.00806946
-0.111855,-0.265389,-0.0997703,0.00560933,0.00944614,-0.0160878
0.496075,-0.117531,-0.192474,-0.00662041,-0.0164139,0.000444651
0.365667,0.0119909,-0.0955061,-0.010196,0.0326927,0.0319548
0.249781,0.00147172,-0.0520638,0.0117768,-0.0486083,0.0108829
0.159046,-0.0850181,-0.0721463,0.0217248,0.00142455,-0.0155476
-0.763997,-0.111871,0.055994,0.012329,-0.0861771,0.00515354
-1.56636,-0.193202,0.235152,0.0162721,-0.0541065,-0.00793874
-1.52335,-0.174964,0.298233,0.0251538,0.011847,-0.012843
-0.574939,-0.12683,0.134794,-0.0381465,0.0525516,-0.0359361
-0.317458,-0.193352,0.0784932,0.00258505,0.0154505,-0.0300096
-0.101509,-0.0686562,0.00904326,-0.0100479,0.0517468,-0.0305499
-0.707592,-0.502077,-0.0983291,0.048106,-0.0136861,-0.096841
0.506217,-0.73893,1.20271,0.00658858,-0.181069,-0.0399317
-0.742863,-0.229687,1.10605,-0.0598146,0.0537709,0.16842
0.397703,-0.103361,-0.0732684,0.0295882,0.281909,-0.191168
5.22446,-0.369213,-2.1861,0.101935,0.727004,-0.216758
5.51415,-2.69811,-2.17632,0.310872,0.0792972,0.0341726
0.40112,-2.45441,-1.2504,0.109294,-0.306957,0.255
2.09531,-0.91677,-0.849086,0.0436245,0.06252,0.310636
1.71558,-0.0327116,-0.640413,0.0872056,-0.0584522,0.16711
0.516739,-0.0429716,-0.307207,0.0216116,-0.0560671,0.0787923
0.285368,0.0464279,0.0150881,0.00772896,-0.00663158,-0.00156552
-0.245516,-0.0194654,-0.0228001,0.0744947,-0.0362372,-0.0095033
-5.0861,-0.626408,0.211961,0.127203,-0.123197,0.0140182
-4.79392,-0.557137,0.245728,0.127203,-0.0164351,0.302592
-3.82971,0.425642,0.678892,-0.166568,-0.0793996,0.108861
-3.0837,0.161629,0.906703,-0.025345,0.0375001,-0.180347
-1.11965,-0.115003,1.16373,-0.00615811,0.224337,-0.0728511
-2.09388,0.0655029,0.730462,-0.0971153,0.0290015,0.018599
0.263963,-0.29046,0.385806,-0.039623,0.116219,-0.125899
-0.972842,0.184934,1.09716,-0.0574394,-0.0970509,-0.00513899
1.57042,0.106704,1.44268,0.00108677,-0.0498506,-0.129614
-0.0749746,-0.0716878,1.9516,-0.0549099,-0.0765024,0.0944483
-0.719274,-0.815438,0.292576,0.105368,0.150797,0.163313
0.896178,0.504235,0.0197489,0.0557865,0.0999355,-0.243706
-0.791415,0.0594322,0.266331,-0.0392741,-0.0601081,0.0858246
0.216292,0.039368,0.224293,-0.0285078,0.103386,-0.0673505
-0.321516,0.110346,0.263485,0.053781,-0.0787458,0.0457437
-0.661746,-0.558664,1.1587,0.0461632,-0.191436,-0.07373
-0.334105,-0.0798309,0.848045,0.00378942,-0.0357128,0.0255122
-0.43433,-0.116578,-0.0506564,-0.0539438,0.235424,-0.0151913
0.408208,0.146508,-0.120793,0.0223597,-0.0512128,0.031371
0.0976282,0.0806855,-0.0232327,0.0246596,-0.07833,-0.0636084
-0.105411,-0.0101178,-0.114222,-0.0158091,0.0751953,-0.0300577
0.0894542,0.017468,-0.137177,-0.0373636,0.0122364,0.0278014
0.153955,0.0560351,-0.0452984,0.0079546,0.0123832,-0.0278175
0.0685686,-0.0144329,-0.063326,-0.0123279,0.023706,-0.025677
0.382013,0.0641078,-0.217587,-0.0126902,0.0605451,-0.0274969
0.960284,0.480696,-1.19575,0.0306574,0.0241306,0.00953627
0.27699,-7.18911e-05,-0.312655,0.0208628,-0.113673,-0.0218879
0.0283328,-0.0845074,0.163489,0.00453269,-0.0422377,-0.0130184
-0.10856,-0.325172,-0.0780018,4.94719e-06,0.0380712,-0.0404273
-0.10342,-0.111624,-0.128514,-0.00987506,-0.0093652,0.0408999
