rotation_x,rotation_y,rotation_z,acceleration_x,acceleration_y,acceleration_z
0.274284,0.0627308,-0.112141,0.0850793,-0.0729448,0.0793296
-0.147783,0.0278804,0.0265898,-0.000214696,-0.058324,0.120227
-0.240681,0.292982,0.0948705,-0.0355279,-0.0676059,0.0569006
0.160824,0.271379,0.17011,-0.00815576,0.00496572,-0.0368191
-0.386864,-0.132661,-0.0519848,0.0145687,0.0457515,-0.0966001
0.271512,-0.952514,-1.09409,0.0912089,0.318253,-0.363433
0.46767,-1.79969,-2.19172,0.10947,0.221816,-0.143801
0.991914,-1.90222,-2.3677,0.1278,0.127858,0.154801
0.311956,-1.40167,-1.40262,0.116539,-0.237369,0.302148
0.241694,-0.537486,-0.557332,0.229118,-0.207377,0.275294
-0.392847,0.431436,0.258975,0.104216,-0.252764,0.210616
-0.144908,1.35926,1.0714,0.0823117,-0.186836,0.265103
-0.382755,1.99363,1.93642,0.114109,-0.0445693,0.0853937
-1.43053,1.476,1.97967,0.125094,0.086928,-0.144604
-0.59881,1.01023,1.90711,0.0526164,0.141398,-0.0757725
-0.797845,0.42613,1.34866,0.083562,0.151886,-0.0893992
-0.585474,0.0313485,0.207931,0.0428126,0.147562,-0.0301776
-0.315689,-0.069829,-0.349965,-0.0547187,0.0832973,-0.029679
0.0656336,-0.0296985,-0.211849,-0.0559748,0.0088259,-0.0232993
-0.039732,-0.0530717,-0.06097,0.00859123,-0.103407,-0.0389485
-0.219493,-0.206261,0.0816895,-0.00230348,-0.0381143,0.0170854
-0.261837,-0.0966001,0.0875142,-0.0319869,0.00267836,0.0166456
-0.43817,-0.148602,-0.00436801,-0.00115013,-0.00236997,-0.00974423
-0.508959,-0.129372,-0.0619335,-0.0166812,-0.0375111,-0.0314707
-0.723805,-0.0365951,-0.104076,-0.00462425,-0.0169853,-0.0195234
-1.31201,-0.0063806,-0.00905088,-0.0401636,-0.01149,0.0242017
-0.50488,0.423034,0.115302,-0.0625053,-0.00884295,0.110313
-0.551525,0.149492,0.155733,0.00316632,-0.0376057,-0.0632715
-0.00636271,0.0522803,-0.0564188,-0.0230104,0.0525597,0.00147057
0.835859,0.0410071,-0.0393763,-0.0245155,0.0271345,-0.00218523
3.12203,-0.0245131,-0.151531,-0.0171568,0.0412383,0.0142735
1.64364,-0.0724193,-0.0279656,-0.0374662,-0.0830795,-0.00128245
-0.191291,0.047118,-0.158088,0.00765944,-0.0484679,0.0343965
0.167672,0.179915,-0.165929,-0.0124287,-0.0109296,0.059487
-0.412293,0.103661,-0.0214567,-0.00173795,-0.0785636,-0.0353123
0.134963,0.0404337,0.0801064,-0.00379324,0.0194043,-0.00245154
0.247651,0.014806,0.0610617,-0.008618,-0.000656396,0.016504
0.0357972,0.00218697,0.0533161,-0.0141426,-0.030799,0.00883508
-0.108459,-0.0850008,0.103169,-0.00852108,-0.0102262,-0.00109243
-0.0247893,-0.0850522,0.0645006,-0.0200666,-0.00160176,0.00329989
0.0511276,-0.0691343,0.0417903,-0.0219611,-0.00181782,0.00797081
0.070718,-0.0627596,0.0291561,-0.0108017,-0.00973251,0.0131993
0.0437612,-0.0467739,0.0202649,-0.0223804,-0.0173998,0.0148104
-0.054731,-0.0488304,0.0287903,-0.013014,-0.0110494,0.0137195
0.00176441,-0.0286408,0.00157091,-0.0180598,-0.0110905,0.012949
-0.0122769,-0.00947139,-0.00182203,-0.0185487,-0.0147613,0.0136846
-0.0350389,0.00119144,0.00219554,-0.0155671,-0.0168883,0.0087465
0.00843147,0.0139448,-0.0198018,-0.0127206,-0.00229365,0.00590342
-0.00323342,0.0437589,-0.0445974,-0.0225798,-0.00974125,0.0102111
0.111417,0.0490025,-0.0475803,-0.0127865,-0.00101379,0.0137861
0.096267,0.0617852,-0.0477673,-0.0117573,-0.0161198,0.0216819
-0.00681441,0.090589,-0.016848,-0.0164881,-0.0212946,0.0182919
-0.0157579,0.0820728,0.0119688,-0.00676131,-0.00881252,0.0091269
-0.0654879,0.0299509,0.0157414,-0.0205206,-0.00609088,-0.00298524
-0.0178552,0.0160812,0.0120151,-0.0210599,0.00676346,0.00383854
0.0506369,7.30557e-05,-0.0214553,-0.0255234,0.00494492,0.00301814
0.0160676,-0.00735487,-0.0239845,-0.0152333,-0.000305772,0.0130597
0.00435513,-0.0105312,-0.0412405,-0.00821161,-0.016288,0.0109479
-0.039317,-0.0243477,3.63933e-05,-0.0129659,-0.0207455,0.0116109
-0.136865,-0.0434488,0.0235684,-0.0172257,-0.0119147,0.00831676
-0.10429,-0.0370788,0.0100165,-0.0152841,0.00549656,0.0049324
0.0126939,-0.0116135,-0.0111699,-0.0195493,0.00047037,-0.00116515
0.0181784,-0.0456769,-0.0153538,-0.013687,-0.00896838,0.00765836
-0.0101108,-0.0360824,0.000373797,-0.00853336,-0.0205997,0.0161717
-0.0816529,-0.0349695,0.0166936,-0.0122786,-0.0177922,0.0155374
-0.0740659,0.00228442,0.0113915,-0.0183552,-0.0100318,0.00924146
-0.0371207,-0.0105228,-0.00425133,-0.00575805,-0.0034757,0.00131941
-0.00466187,0.0107519,-0.00817694,-0.0207169,-0.0139924,0.00711876
-0.0166216,0.00969465,-0.00188708,-0.0136716,-0.0119891,0.00596297
-0.0187283,0.0203453,-0.00834227,-0.0134771,-0.00629807,0.00586259
-0.00450229,0.0288576,-0.0253175,-0.0215099,-0.00549287,0.00384092
-0.00127852,0.00437023,-0.0209754,-0.0136935,-0.00544104,0.000708401
0.0224024,8.72109e-05,-0.010002,-0.00898969,-0.0157633,0.00886607
-0.0729845,-0.00942423,0.012488,-0.0143428,-0.0194848,0.0146686
-0.000544658,0.0277781,0.0100582,-0.0130116,-0.0157908,0.0122018
0.0513466,0.0692566,0.00739524,-0.020354,-0.0159939,0.0118657
0.121655,0.120298,0.000642742,-0.0197314,-0.010232,0.00390768
0.276723,0.173421,-0.0458329,-0.0309517,-0.00803202,0.00747925
0.208348,0.162813,-0.0209085,-0.0245167,-0.00805134,0.00968993
0.0569216,0.059665,-0.00753625,-0.000187755,-0.00329649,0.00692803
0.0374877,0.018173,-0.00663447,0.00762439,-0.00893837,0.00677848
-0.100875,0.00549513,-0.0103399,-0.0420028,-0.0203215,-0.00269413
-0.0290242,0.00330777,0.047236,-0.0113712,0.0180293,-0.00348628
0.0909313,0.0351823,-0.0520796,-0.0267116,0.0248305,0.00624847
0.183886,0.0915228,-0.0532339,-0.0228614,0.00554356,0.00937343
0.161281,0.0457726,-0.0587936,-0.00319374,-0.0143586,0.00678003
0.0281117,-0.000974366,-0.038846,-0.00976783,-0.0253849,0.0173236
-0.0209993,-0.00520412,0.00450511,-0.0137818,-0.0227006,0.0254804
0.0109636,0.0320218,0.0465935,-0.00111836,-0.0114973,0.0209945
0.0033676,0.0501144,0.0475492,-0.0118792,0.00344804,0.006832
-0.0221675,0.0480201,0.00765254,-0.0261381,0.000737369,0.00304562
0.076197,0.0777472,0.00873087,-0.0406676,0.00265697,-0.00128877
-0.0166914,0.0341787,0.0023739,0.000377178,0.00307903,-0.00692391
-0.0487057,0.0256941,-0.0376005,-0.0234404,-0.0111504,-0.00518835
-0.0331556,0.0224755,0.0268255,-0.00871563,-0.013705,-0.0103647
-0.00578011,0.00329917,-0.00390093,-0.0171759,0.00249857,-0.00836372
0.060167,-0.0105872,-0.000997446,-0.0275885,-0.00937805,-0.0084058
-0.054105,-0.0828752,-0.0279119,-0.0323552,-0.0111978,0.0104989
-0.0779906,-0.0966971,-0.0174601,-0.0214847,-0.0148314,0.0329628
0.033159,-0.0233366,-0.00235644,0.00672042,0.00198144,0.0347985
0.255455,0.05209,-0.0684432,-0.00283015,-0.0184694,0.0205656
0.147102,0.0223631,-0.0450094,-0.0420169,-0.0337102,0.0084939
0.119847,-0.014906,0.0832048,0.00257993,-0.0187005,-0.00173092
0.113799,-0.0393756,0.043542,-0.00234079,0.0232214,-0.0070799
0.0862425,-0.104272,-0.00381248,-0.0338281,0.018914,-0.00989646
-0.0477364,-0.153143,-0.00957311,-0.0204966,0.0302388,0.0188223
-0.0106681,-0.112712,-0.0423842,0.0177407,0.0379272,0.0215663
-0.195244,-0.191309,-0.170737,-0.0104785,-0.0124547,0.00673068
0.107165,-0.0531599,-0.148178,-0.0738034,-0.046939,0.0300148
-0.0203131,-0.0382429,0.149089,0.000910282,-0.0662198,0.0048393
-0.313672,-0.150846,0.0859142,0.0295205,-0.0464605,-0.0361103
-0.0430589,-0.111671,0.159618,-0.0254968,-0.0100446,0.0141418
0.0639676,0.0521718,0.146738,-0.0254458,0.00197038,0.0320078
-0.0495789,0.0469708,0.0437529,-0.0197362,0.0148502,0.0165414
-0.16223,-0.00402299,-0.0367099,-0.00999713,-0.00246713,-0.0128586
0.138403,0.00427134,-0.0386665,-0.0233959,-0.0244206,-0.00148594
0.0330235,0.0224339,0.00616326,-0.0165756,-0.019945,0.0322242
-0.137012,0.0225561,0.031009,-0.00501984,-0.0248128,0.005822
-0.443018,-0.108153,0.0415881,-0.0120963,-0.00420603,-0.00451422
-0.16093,-0.0466297,0.0500688,-0.0282607,0.0174397,0.0101359
-0.0165079,0.018217,-0.0136674,-0.0177817,0.0254399,-0.00671911
0.205851,-0.00322355,-0.0764455,-0.0225236,0.0287131,0.000922084
0.304589,-0.0384403,-0.00140938,-0.000643432,-0.0242107,0.00769305
0.30219,0.0190369,0.0156365,-0.0132122,-0.0345339,0.0262434
-0.221369,0.0439006,0.0300232,-0.0255939,-0.0660207,0.0133782
-0.238926,0.0226153,0.0566105,-0.00702763,0.00214899,0.00757241
-0.0976849,0.0470118,-0.00926748,-0.0170108,0.0243731,-0.000190735
0.351313,-0.0235672,-0.0244517,-0.0158346,0.0224968,-0.00195181
0.303273,0.0264938,0.0145785,-0.00467658,-0.0220127,0.00470513
0.0837073,-0.15538,0.03689,-0.00806004,-0.00241923,0.0284153
-0.203976,-0.054065,0.134183,-0.0394075,-0.162335,0.00505602
-0.347993,-0.00391452,0.044692,-0.0106881,0.00517616,0.0295368
0.0799214,0.013917,-0.134635,-0.0143381,0.0706517,0.00733942
0.139496,0.0841018,-0.0473063,-0.0329713,-0.0678301,-0.0356276
-0.162038,-0.0306625,0.0511108,-0.0111237,-0.0120474,0.019165
-0.365941,0.00888668,0.00165158,-0.0238129,-0.0107453,0.018252
-0.546806,-0.0143755,-0.0731786,-0.011026,0.0167417,-0.0174947
0.0433025,-0.0318551,-0.0407856,-0.0191077,-0.0020439,-0.00566101
0.0889935,0.00112334,-0.0702728,-0.0201615,-0.00160581,0.0169811
0.0850771,-0.0627668,0.000404371,0.00927579,-0.0130987,-0.0114435
-0.259243,-0.305068,-0.554675,-0.0148115,0.0968216,-0.0949965
0.0925788,-0.496812,-0.986271,-0.0163354,0.153247,-0.0566441
0.698526,-0.406666,-1.44526,-0.0279675,0.145025,0.031474
1.11852,-0.261099,-1.60339,0.0244679,0.042828,0.10484
1.37245,0.136774,-1.41675,0.0474397,-0.0683107,0.312349
-0.351999,-0.0398297,-1.01747,0.0358529,-0.216963,0.130642
0.49814,0.46705,-0.0489697,0.0181026,-0.181475,0.13554
0.366634,0.511814,0.113318,0.0878797,0.017193,-0.0504253
-0.103492,0.667578,0.0724976,-0.0685247,0.111624,0.0569572
-1.14336,0.357526,0.0631699,0.00968075,-0.0996838,-0.0347249
-0.301906,-0.0752513,-0.0125321,-0.0410775,0.0521468,0.00159931
0.611017,-0.0503664,-0.0386144,-0.0183806,-0.014786,0.00288236
0.394824,0.114764,0.0412173,0.0147296,-0.0379952,0.0351264
-0.465838,-0.0687256,-0.0550736,-0.00255513,-0.0319489,-0.0203775
0.146049,-0.154371,0.0729278,0.015146,-0.00411677,-0.0423616
0.292727,-0.275838,0.121825,0.0202097,-0.0113196,0.0236661
0.588185,-0.27176,-0.00545277,-0.0521878,0.070252,-0.0446064
0.320471,-0.1683,-0.0599885,-0.0215727,0.0132715,-0.0136496
-0.455936,-0.094275,-0.0688535,-0.000365734,-0.0830648,0.0336297
-0.24658,-0.106178,0.0770031,-0.0186463,0.00920206,0.0136052
-0.439002,-0.185847,-0.0246776,-0.00466311,0.060402,-0.0585849
0.194162,-0.136323,0.123779,-0.00320631,-0.0520777,0.0121151
-1.23683,0.0807375,0.445704,-0.00472814,-0.232877,0.103946
-1.02699,-0.0981417,0.0435299,-0.00924587,0.27173,-0.0429837
0.832901,-0.0547851,-0.0575137,-0.0596861,-0.0061276,0.0410736
0.288237,0.0829217,-0.000642428,0.0195063,-0.0920796,0.0617645
-0.239434,0.0183746,0.00200589,-0.0260493,0.0341015,-0.0154277
0.477165,-0.0715475,-0.0593773,-0.00636196,0.0698871,0.0072819
-0.0119844,0.0309974,-0.0339662,-0.0255836,-0.093814,0.0633753
-0.204691,0.0651913,-0.0158474,-0.0289367,0.0569863,-0.0120835
0.235576,0.0659323,-0.0301371,-0.00762701,0.00739181,-0.0103056
0.123474,0.042607,-0.0624321,-0.0130445,-0.00868243,0.0233442
0.0476951,0.0884403,-0.0590449,-0.0181231,-0.00407243,0.0123043
0.0391595,0.0309632,-0.064443,0.00514519,0.000384033,0.0125784
0.0587994,0.0213717,-0.0802729,-0.000193715,-0.0152918,-0.00770664
0.0154787,0.0033038,-0.0721825,-0.00134313,-0.0207965,0.00640923
0.0554892,0.00966283,-0.0728042,-0.0101863,0.00242722,0.0216566
0.16029,-0.0447065,-0.0587157,0.00425053,-0.0130973,0.00159025
-0.0321478,-0.112691,-0.0565457,0.00523984,-0.0379906,0.00610131
0.0143203,-0.113816,0.0499848,0.000826836,-0.0101677,0.00810409
-0.175054,-0.091324,0.0606672,-0.0256632,-0.0110143,0.0107139
-0.137993,-0.0210892,0.025682,-0.0268556,-0.00011003,0.0115243
-0.110657,-0.000877815,-0.00508068,-0.0162238,0.0328619,-0.0139068
0.0709072,-0.0169823,0.00662754,-0.0249677,-0.00454545,0.00856733
-0.0438508,0.0278109,0.0149239,-0.0190822,-0.0188343,0.0190893
-0.0219498,0.0863522,-0.0170028,-0.0267067,0.0252386,-0.0082469
0.195001,0.143695,-0.0874064,-0.0276439,0.00897837,0.0173399
0.252503,0.194748,-0.110368,-0.00598091,-0.0108396,0.00870252
0.138746,0.130955,-0.0837565,0.0106953,-0.0379885,0.00456047
0.007556,0.0650476,-0.0444868,0.000931859,-0.0243735,-0.00243872
0.0495207,0.0341404,-0.0214969,-0.00412118,-0.0189063,0.00632465
-0.0869666,-0.00621428,0.0048369,0.00310647,-0.0120425,-0.00597882
0.0102439,-0.0275797,0.0177357,-0.019182,-0.0131365,-0.00055331
0.0335463,-0.0116451,0.0629494,-0.00122523,-0.0121275,0.0166011
-0.0732059,-0.0339137,0.0360643,-0.0236278,-0.00312304,0.0131031
0.01678,-0.0318397,0.013533,-0.0135395,0.00776875,0.0055868
-0.0360006,-0.0190247,-0.00742475,-0.0110601,-0.00254005,0.0018838
0.022441,-0.00629294,-0.0131999,-0.0101554,0.00230992,0.00319415
-0.0316749,-0.00838357,-0.00845778,-0.0105733,-0.016892,0.00206602
-0.00583078,-0.0041439,0.00147159,-0.00702953,-0.0128144,0.0058822
-0.00139446,-0.00308242,-0.00918951,-0.0156368,-0.00735855,0.00631881
0.0169533,0.0192566,-0.0079342,-0.00873077,-0.00968653,0.00320631
-0.0296807,0.00331992,0.00654289,-0.0105557,-0.020569,0.0116798
-0.0016449,-0.010537,0.0154451,-0.0123506,0.00642937,0.00552094
-0.0602728,-0.0264695,0.03942,-0.00439692,-0.0014413,-0.000114083
-0.0471965,-0.0392465,0.0310201,-0.0224603,0.00655299,0.00882918
0.00179214,-0.0243754,-0.00163653,-0.0184388,-0.00436532,0.01522
-0.0967595,0.000175915,0.0100701,-0.0126517,-0.0239341,0.0080269
-0.119587,0.032123,0.0183436,-0.0163437,-0.0112652,0.00446743
-0.00985621,0.0544125,-0.0328961,-0.0180623,0.0191085,-0.00268078
0.11545,0.0607012,-0.020779,-0.0115519,0.000235736,0.000903368
0.0980112,0.0330308,-0.00489237,-0.00191593,-0.0126756,0.000244617
0.0484795,0.0288148,-0.0247219,-0.00638562,-0.00961757,0.00583541
0.0365317,0.0373419,-0.0205781,-0.00561821,-0.0161464,0.01042
-0.0370912,0.0235571,-0.0106894,-0.00591666,-0.0123367,0.00385213
-0.0111604,0.00969629,-0.00717332,-0.0099988,-0.00377893,-0.00129551
-0.0814761,-0.0232487,-0.00150913,-0.0033887,-0.0196673,0.00501859
-0.0740542,-0.0434862,0.0146518,-0.0109043,0.0032717,0.0123246
-0.111943,-0.0785771,0.0217656,-0.0113307,-0.0243518,0.0168641
-0.140153,-0.0455733,0.0278201,-0.0116923,-0.00923824,0.00478125
-0.0231309,-0.0711931,0.00776741,-0.00339699,0.0145414,-0.00807893
0.122297,-0.0234142,0.0564762,-0.0011586,0.0286257,0.0235015
-0.29359,0.0429045,0.00780373,-0.0333896,-0.0476769,-0.0116577
-0.121053,-0.0317502,0.0612248,0.0166669,0.0168657,-0.00804579
-0.252809,-0.193426,-0.0428984,-0.00994134,-0.0304601,0.0181648
-0.143815,0.00554991,-0.040787,-0.0441419,-0.0271068,0.0205607
0.240151,-0.104348,-0.14126,0.00541461,0.0845745,-0.0136412
0.860805,-0.0462585,-0.14178,-0.0214928,-0.088243,0.037258
0.159789,-0.0798473,-0.00729295,0.0210582,0.0258116,0.00164741
-0.310457,0.00459545,-0.0298379,-0.0226468,-0.00239849,0.0279005
-0.434876,0.0163471,0.18182,0.022529,-0.0268635,-0.00329798
0.00566239,0.00541573,0.0390643,-0.0131687,0.0212486,-0.00865263
0.414283,0.0487585,0.0479372,-0.0512637,-0.0361438,0.0263683
0.0651797,-0.076595,0.0430292,0.0334562,-0.0117502,0.0168289
0.520253,-0.0811131,-0.24947,0.0162057,0.340378,-0.00371838
0.232797,-0.0351966,0.0384711,-0.00375473,-0.229375,0.00106502
-0.334858,-0.211486,0.0493416,-0.0230159,-0.0211768,0.0217289
-0.0217734,0.200259,-0.0449498,-0.0542545,-0.00761145,0.0975908
-0.616704,0.176177,0.0778833,0.0219227,-0.0236548,-0.069815
0.0678871,0.0564533,0.0814767,-0.0106969,0.056531,0.00594342
0.7589,0.166626,0.172712,0.0178764,0.020319,0.0518626
0.676842,0.110294,0.0626202,-0.0585115,0.0143053,0.0230181
-0.109748,-0.134952,-0.182672,0.019238,-0.0827561,0.0503833
-1.01952,-0.20564,-0.0397998,0.0125717,-0.00727344,0.0201918
-0.0535642,0.0448448,0.0115778,-0.0716348,0.114082,-0.0307042
0.0119772,0.300273,0.0270694,-0.0162833,-0.0374323,0.0726993
-0.209915,0.378107,0.143321,0.00607455,0.00314838,-0.0570633
-0.0923071,0.0182715,-0.00381749,0.0212253,0.0162563,-0.0583707
0.0172189,-0.134025,-0.0184883,-0.0216109,-0.0345004,-0.000900984
-0.0523617,-0.0903311,0.0128115,-0.0234085,0.00550067,0.00845081
-0.0479976,-0.0168869,0.0020768,-0.028565,-0.0369352,0.0251371
-0.282545,0.0428721,0.0892991,-0.0116015,-0.0323648,0.0109998
-0.0108398,0.00119263,-0.0371355,-0.0134902,0.0716863,-0.0499492
0.284455,-0.0352194,-0.0412541,-0.0106134,-0.0318266,0.0534249
-0.0145467,-0.00520387,0.0077978,0.00812149,-0.0352059,-0.00583178
0.195382,-0.0266481,-0.00372626,-0.00441754,0.015154,-0.000997066
0.137093,-0.0234101,-0.0140275,-0.00889915,-0.00521201,0.00969315
0.0874791,0.0309224,-0.0317701,-0.0127215,-0.0235611,0.0221565
0.125163,0.0340853,-0.0163547,-0.00413096,-0.0355805,0.0107168
-0.0158181,0.039501,0.0216585,0.000519395,-0.0439308,0.0114314
0.00734647,-0.00521285,-0.0176506,-0.00577521,0.0263948,-0.00139147
0.016006,-0.0243866,-0.0164714,-0.00205737,-0.00777447,0.0139652
-0.0663857,-0.0211314,0.00294339,-0.00765604,-0.0274645,0.0264577
-0.0676798,-0.00942724,0.0221889,-0.00333381,0.00284433,0.00766981
-0.0500903,0.00333922,-0.00653579,-0.017233,0.0213537,0.00378931
-0.0133538,0.0405674,-0.00722871,-0.0219592,-0.00415462,0.0147976
-0.107378,0.0512884,-0.0136511,-0.00873613,-0.0152888,-0.00230885
0.0766467,0.0277398,-0.0297439,-0.0190158,-0.00317359,-0.00289404
0.021384,0.0597032,-0.0218477,-0.0111133,-0.0282255,0.015684
-0.00151288,0.0597182,-0.00390136,-0.00498843,-0.00715697,0.0127056
-0.107682,0.0321148,0.0174082,-0.0114224,-0.0148059,0.00503451
-0.0612641,0.0278275,0.025442,-0.00992262,-0.000945151,-0.000792325
-0.0122592,-0.0179779,-0.00287277,-0.0192012,0.0067327,0.000715017
0.0180979,9.89297e-05,-0.012182,-0.00802261,-0.000718296,0.00926167
-0.0490175,0.0225009,-0.00761096,-0.00837111,-0.027951,0.0135416
-0.0298186,0.0384541,0.0161548,-0.00583839,-0.00847244,-0.00011152
0.0718762,0.0149576,0.0141129,-0.00510639,0.00559497,-0.000304282
0.10345,-0.0350921,-0.0015414,-0.00284374,-0.00838029,0.00863528
-0.0742676,-0.0509125,-0.0677838,-0.0103243,-0.042987,0.0294846
-0.0752877,0.0533768,0.0198921,-0.00794524,-0.0217101,0.00523233
-0.0221494,0.0182169,0.00875569,-0.00738215,0.00036782,-0.00066793
0.036329,-0.0286601,0.00518368,-0.00724477,-0.00784081,-0.0035159
-0.0197149,-0.0743904,-0.00825854,-0.00712621,-0.0107488,0.00720674
-0.0803889,-0.0179273,-0.00257318,-0.0212219,-0.00678295,0.0117347
0.0577507,0.0181554,0.0203685,-0.0124573,-0.00420254,0.00304741
-0.0319017,-0.016903,0.0140355,-0.00521076,-0.00783718,0.00256151
-0.0134768,-0.0264988,0.0110381,-0.00919127,0.00782096,0.00773323
0.0256689,-0.0126833,-0.0110164,-0.0203325,-0.00754422,0.0118707
0.0418477,0.00327764,-0.00869924,-0.00762141,-0.0124897,0.0153928
0.00180049,0.00117106,-0.00487583,-0.00966382,-0.0128813,0.0111014
0.0515017,0.0139107,-0.0021796,-0.011541,-0.0117283,0.00922883
-0.011211,0.00225291,-0.00180119,-0.00411642,-0.014837,0.0108477
0.0169576,0.00329149,-0.0068449,-0.00750732,-0.00527829,0.00467891
0.00611026,-0.0062827,-0.00267662,-0.00555718,-0.00641835,0.00724751
-0.0308223,0.00757817,0.0118805,-0.00779909,-0.0165969,0.00732565
-0.0514237,0.00971972,0.016997,-0.00958711,-0.0137568,0.00881732
0.00480421,0.00542462,0.0176438,-0.00764823,0.00581831,-0.00146776
-0.013053,-0.0264834,-0.0296378,-0.0108075,-0.00239325,0.00453663
-0.0358809,0.0288812,-0.0235304,-0.0138092,-0.0229554,0.0180621
-0.0590075,0.0469831,0.014734,-0.0133584,-0.00211954,0.00706816
0.0126941,-0.00202724,-0.0122427,-0.00476938,-0.00305665,0.00718963
0.032056,-0.0137519,-0.00130261,-0.0072276,-0.0103142,0.00981468
0.0407336,-0.0201396,-0.00333314,-0.0096724,-0.00665092,0.0154722
-0.00689452,-0.0105293,0.00039553,-0.0144871,-0.0158305,0.0139618
-0.0210195,-0.0094533,0.00666227,-0.00848913,-0.0105581,0.00714439
-0.0123955,-0.0275594,0.0110572,-0.0105608,-0.00939685,0.00516742
0.0092649,-0.017996,0.00700794,-0.0164101,-0.000477672,0.00608659
0.0277543,-0.0148117,-0.00349056,-0.00989723,-0.0040341,0.00663978
0.0450226,-0.00630651,-0.00115837,-0.010865,-0.00926638,0.0110536
0.028721,-0.0126838,0.0072286,-0.011398,-0.0123838,0.00977361
0.00494973,-0.00627946,0.00481073,-0.00419623,-0.00880075,0.00860512
0.00162138,0.000107554,0.0122613,-0.00866675,-0.00576937,0.0131196
-0.0772354,-0.00622147,0.00494716,-0.00638878,-0.0314097,0.0088625
-0.000390514,-0.00414924,-0.00168166,-0.0107564,0.0107886,0.00258195
0.0343323,-0.0158788,-0.0119807,-0.00203693,-0.0135872,0.00421536
-0.0274731,-0.0190365,0.00444662,-0.00831777,-0.0192376,0.00580865
0.0277128,-0.0286538,0.00187273,-0.0079155,-0.0041579,0.000161588
0.0472435,-0.052086,-0.00216647,-0.00527918,-0.00404328,-0.00148958
0.0598033,-0.159589,-0.0554494,-0.00696242,-0.00930524,-0.00745618
0.0126882,-0.116958,-0.104201,-0.0138288,-0.0100948,0.0424015
-0.0801225,0.15876,0.0582882,-0.022411,-0.0204831,0.0256513
0.0267393,0.138452,0.0787935,-0.00496471,-0.0145873,-0.0207128
-0.187259,0.020482,-0.0241601,-0.0101042,-0.00338233,9.60231e-05
0.02233,0.013935,-0.00464882,-0.0179746,-0.000984192,0.0111623
-0.0234818,-0.0509549,-0.0640013,-0.00625408,-0.018526,0.0028109
-0.184756,0.00558158,-0.0551729,-0.0168842,-0.00251842,0.00460917
-0.0907271,0.000187756,-0.0498206,-0.0150443,-0.0388654,0.0107831
-0.231826,-0.0210132,0.00213496,0.000118971,-0.0160533,0.00184071
0.108791,-0.0478709,0.00602755,-0.019285,0.000395894,-0.00807393
0.286076,-0.0660974,0.01341,-0.00414836,-0.0210464,0.0271732
0.0636778,0.0298492,0.0728924,-0.0171345,-0.0485607,0.00933105
0.0319238,-0.005236,0.0104693,-0.00818849,0.0390722,-0.011239
0.0926186,-0.0265711,-0.000604968,-0.0117552,-0.00958353,0.00350952
0.0687385,-0.023362,0.00768744,-0.0109861,-0.0104418,0.00899184
0.218361,-0.042623,-0.0280731,-0.0152724,-0.00967669,0.00651461
0.0622756,0.019223,0.00114778,-0.0126392,-0.0470521,0.00834411
-0.112938,0.0715116,-0.000888612,-0.0154973,-0.0225912,0.00495899
-0.00148493,0.0192741,-0.00278286,0.000151873,-0.0226226,0.00409102
-0.0644085,0.00760349,0.017927,-0.00161374,-0.00732267,0.00930119
0.0135646,-0.0275747,0.0102853,-0.00357223,-0.00153279,0.00506496
-0.105542,-0.0455952,0.0271458,-0.00414479,-0.0233629,0.0173675
-0.16514,-0.0519363,0.0393317,-0.00599676,0.000460982,-0.0392286
0.0375979,-0.0265259,-0.0130043,-0.0121784,0.0148542,0.000572443
0.099209,-0.00634875,-0.012329,-0.0131086,-0.00559795,0.00164342
-0.149833,0.0129929,0.016959,-0.0134485,-0.0177156,0.0158819
-0.0868847,0.0459483,-0.0080616,-0.0203477,0.0122145,0.00234854
0.0471485,0.0532994,-0.00333861,-0.0069257,-0.00538337,0.000932574
-0.0242002,0.00651487,-0.000888505,-0.00829434,-0.00570303,0.00738931
-0.0741634,0.0299703,0.0178018,-0.00319248,-0.00744915,-0.00144947
0.0624342,0.00539122,-0.0127525,-0.00878859,-0.00155962,-0.0173902
0.0947986,0.0106901,-0.00596406,-0.00208884,-0.0246885,0.0147734
0.0158481,-0.0147976,-0.00254769,-0.00920522,-0.0165546,0.0172226
0.0277602,-0.0435506,-0.00131788,-0.00466388,-0.00577056,-0.0176156
-0.0284357,-0.0158341,-0.00733868,-0.015163,-0.0123516,0.0102268
-0.0469473,0.00227488,0.00314359,-0.00898015,-0.0101572,0.00519204
-0.0631441,0.00440956,0.000807929,-0.00624806,-0.00734544,0.0019694
-0.0112566,0.00331509,0.00247855,-0.0107388,-0.0143819,0.00489646
0.00729196,-0.00734004,-0.0122916,-0.00521702,-0.00124884,-0.00394011
-0.0111831,-0.00201025,-0.00394553,-0.0103515,-0.0134101,0.0097025
0.00506708,0.000107185,-0.00697607,-0.00612861,-0.00705671,0.00451261
0.0374199,-0.00524001,0.00196307,-0.00757217,-0.0131471,0.00990617
-0.0123811,0.00330867,0.00674085,-0.0104008,-0.0134623,0.012291
-0.00801049,0.00224269,0.00250933,-0.0106213,-0.000736773,0.00475174
-0.000369102,0.00756252,-0.00490281,-0.0090099,-0.013687,0.00735933
0.0298317,0.0139275,0.00186009,-0.0104945,-0.0108448,0.0139915
-0.0199241,0.00864815,0.00345167,-0.010289,-0.00488043,0.0127681
0.119697,0.0138681,-0.00889453,-0.00816894,0.00546235,0.00853866
-0.0123608,0.0277921,0.00243359,-0.0100036,-0.0191465,0.0128337
-0.065412,-0.00303846,0.0115023,-0.0127729,-0.0139046,0.00526422
0.0115228,-0.0020258,-0.00368671,-0.0129617,0.00112891,0.00557894
0.02996,-0.00203897,-0.00883257,-0.00613761,-0.0121223,0.0093317
0.0679637,0.0724522,-0.0309596,0.00018084,-0.0126158,0.000312328
-0.105226,0.0278705,-0.0103879,-0.00945675,-0.0399571,0.0228917
0.0757863,0.0490104,0.0505306,-0.000670552,0.0205765,-0.0234153
-0.0557608,-0.041347,-0.0804377,-0.0188283,-0.0395952,0.0264978
0.0160152,0.0948187,0.0744327,-0.00619173,0.00851822,0.00290728
-0.0715604,0.00442677,-0.0217658,-0.00772208,-0.00598806,-0.00120574
0.000700103,-0.0137293,-0.00165866,-0.0051049,-0.0170246,0.00214338
0.0147135,-0.00522201,0.00170737,-0.0117625,-0.00893468,0.00638074
0.0341443,-0.0180123,0.00622146,-0.00580442,0.00023675,0.00613004
-0.0210663,-0.0083856,0.010949,-0.0100338,-0.0163741,0.00868881
-0.00686207,-0.0201111,-0.0017388,-0.0142338,-0.000622094,0.00535047
0.00504407,-0.0222449,-0.00266782,-0.0104938,-0.00464463,0.00445658
-0.000344743,0.00543474,-0.00704108,-0.0116006,-0.00952506,0.0102943
0.0440561,-0.0094949,-0.0118714,-0.0106084,-0.00746942,0.000950038
0.0408437,-0.00524276,-0.0151355,-0.00687903,-0.0102333,0.00663769
-0.00788937,-0.0179807,-0.00710691,-0.00238603,-0.0155741,0.00214189
0.0137205,-0.0148011,-0.00579138,-0.00637984,-0.0111002,0.00606138
0.0137017,-0.00734915,-0.00472708,-0.00941718,-0.0115227,0.00996035
-0.0372328,-0.0147636,0.00648384,-0.00812191,-0.0189009,0.0103383
-0.0285652,-0.0211572,0.00551686,-0.00974816,-0.00993657,0.00955427
0.0255624,-0.00842106,-0.00137675,-0.0117539,0.00431454,0.00528646
-0.00688944,-0.00414349,-0.000683016,-0.00827157,-0.00898838,0.00673896
0.0319762,0.0213741,0.00294421,-0.0118939,-0.00802213,0.011138
-0.0719945,0.0565836,0.014591,-0.0158103,-0.0360561,0.0164557
-0.0029953,0.0565234,0.0346402,-0.00736451,-0.00385898,-0.00264466
-0.042421,-0.0211377,-0.0139076,-0.0126724,-0.00106847,0.00762081
0.00116442,-0.0531038,-0.0423009,-0.00417268,-0.00725603,-0.00394976
0.0180093,0.00968033,-0.00469356,-0.0143464,-0.0095278,0.0142388
0.0377344,-0.0190647,-0.0269212,-0.00653207,-0.00907266,-0.000183463
0.0601827,0.00538885,-0.00421465,-0.00222743,-0.0132164,0.0122956
0.013579,-0.0201207,0.00813943,-0.00402248,-0.0168257,0.0102853
-0.0113633,-0.0115962,0.0142625,-0.0079391,-0.0178898,0.00607836
-0.0654277,-0.0221941,0.0147402,-0.00717276,-0.0100051,0.00639009
-0.0330553,0.00971263,0.0182844,-0.0137404,-0.00233209,0.00365496
-0.0342304,0.0033224,0.0279116,-0.00824738,-0.0197689,0.0126812
-0.0601512,0.0193084,0.0233176,-0.0136756,-0.00587064,-0.00132537
-0.0264987,-0.00306626,0.0130154,-0.0121714,-0.0110832,0.00280076
0.255049,-0.0149702,-0.0233957,0.00135434,-0.0377888,-0.00165135
-0.0936089,0.0129538,0.0175991,-0.00409114,-0.044872,0.0258398
-0.154223,0.044929,0.0200894,-0.00952923,0.0113542,-0.001073
0.0482423,0.00752458,-7.03465e-05,-0.0111203,-0.00855672,0.00217664
0.00603555,0.000107718,0.00374717,-0.011061,-0.0255638,0.0024302
-0.0328539,-0.00093026,9.15388e-05,-0.00892198,-0.00094986,-0.00267494
0.0537506,0.00539712,-0.00963837,-0.010993,-0.00218385,0.00769275
-0.0112979,0.0118266,0.0056775,-0.00190681,-0.0145921,0.00729072
0.0276878,0.00541855,0.000779771,-0.00247395,-0.00830621,0.00359267
0.0266555,0.00222272,-0.00351712,-0.0106483,-0.014996,0.0104946
0.0125874,-0.00841116,-0.00152337,-0.00594151,-0.0111173,0.00429821
-0.0134015,-0.0137169,0.00246836,-0.00802612,-0.00954586,0.000481188
0.037497,-0.01588,-0.00444592,-0.017266,-0.004471,0.00952631
0.0255143,-0.016935,0.00398863,-0.00422251,-0.0110163,-0.00178289
-0.00252843,-0.00627635,-0.00384561,-0.0110189,-0.0121194,0.00781369
0.0516224,-0.00631079,-0.0117935,-0.013643,0.000385642,-0.000528276
0.00766828,-0.00413421,-0.0486906,-0.014985,-0.0398614,0.0250511
-0.140801,0.14177,0.0715373,0.00786257,-0.0293407,0.0092175
-0.0328248,-0.00731775,-0.00204481,-0.018095,0.0258169,-0.0250835
0.00442853,-0.0967458,-0.0400742,0.0152651,-0.0347357,0.0197215
0.0371595,-0.0031126,0.0265904,-0.0201961,-0.0212237,0.0162326
-0.0198007,-0.000937676,-0.0072552,-0.00741577,0.00457346,0.00273341
-0.0361121,-0.0211486,0.00329305,-0.0047819,-0.00677413,0.00198394
-0.0297498,-0.00732015,0.0140559,-0.0122716,-0.0212685,0.0133023
-0.0635943,0.0267652,0.0414832,-0.0066309,-0.0246645,0.00439906
-0.158469,0.0215137,0.0147089,-0.0156699,0.0152321,-0.00973755
0.132774,-0.00849739,-0.0162244,-0.0123935,-0.0172168,-0.00548756
-0.0133291,0.00331666,-0.00611341,-0.00652087,-0.0321389,0.0167937
0.000693427,-0.00840114,-0.00165656,-0.00946844,-0.000684798,0.00592202
-0.0532894,-0.0094238,-0.00976216,-0.00712484,-0.0198245,0.0181046
-0.0663714,-0.0253838,0.0018837,-0.00482172,-0.0102161,0.0125489
-0.114145,-0.0253621,0.0206044,-0.0142008,-0.013202,0.0127967
-0.0567338,-0.000901599,0.00840355,-0.0163958,0.00630629,0.0047161
0.0330692,0.0320185,0.000804626,-0.0144451,0.00149345,0.000668347
0.0428406,0.0352113,-0.00336365,-0.00973868,-0.00888449,0.00420082
0.0460739,0.0352056,-0.00226021,-0.00543022,-0.00990272,0.00503743
0.0721486,0.0341215,-0.0137459,-0.00966197,-0.0080778,0.00686574
0.0970057,0.0330445,-0.0123847,-0.00609189,-0.0170249,0.0113503
0.12106,0.0223906,-0.0367254,0.0111285,0.00905704,-0.00554603
-0.0957299,0.0406242,0.0111121,-0.0111803,-0.0599772,0.0345749
-0.0107077,0.0884596,0.0452276,-0.00388336,-0.000720561,-0.00393301
-0.140065,-0.012559,0.0160269,-0.00929117,-0.0164727,-0.01072
-0.0664895,0.00229384,0.0104254,-0.000449002,-0.00104451,0.015538
-0.0728662,-0.00728131,0.000723453,-0.00856912,-0.00356317,-0.00411862
0.0309952,-0.002035,-0.00453054,-0.00512493,0.0154867,0.00730896
-0.0554414,-0.0307133,-0.00869672,-0.00300324,-0.0229068,0.0136229
-0.0566328,-0.0094281,-0.00016906,-0.0120362,0.00148505,0.00316972
-0.0142748,-0.00945196,-0.0178878,-0.0147147,-0.000936449,0.00328594
-0.0195046,-0.0296672,-0.0329148,-0.00935078,-0.0194896,0.0100464
-0.0208221,-0.0488409,-0.0082944,0.00760484,-0.00395703,-0.00152701
0.0375,-0.0414268,-0.002278,-0.0160913,-0.00156087,0.0130327
-0.0232344,-0.0350023,0.0141555,-0.00873893,-0.019097,0.00567478
0.0372999,-0.0190825,0.0148224,-0.0105264,0.00349414,-0.00138295
0.0418583,-0.029721,-0.00652464,-0.0129341,-0.00992674,0.00602365
0.016975,-0.00521383,-0.00789407,-0.0109333,-0.00654042,0.00500679
0.0863526,0.0298647,-0.0274899,-0.0181829,-0.00331974,0.000155985
0.0907453,0.0192133,-0.0327895,-0.0023042,-0.0177101,0.00459474
0.0041076,-0.0222379,-0.0165942,0.000811696,-0.0227495,0.00447667
-0.0263138,-0.022214,-0.00301332,-0.00482631,-0.0109506,0.00580668
-0.0144455,-0.0275579,0.000323305,-0.0021795,-0.0126165,0.00663453
-0.0296361,-0.0200923,0.00443217,-0.00883806,-0.0164953,0.0122771
-0.035068,-0.0168951,0.0065093,-0.00742024,-0.00841129,0.0135198
-0.0340161,-0.0105072,0.00865946,-0.00948656,-0.00794846,0.00675642
-0.0101607,0.00118009,0.00141531,-0.0107417,-0.00548065,0.00993431
0.0115262,-0.00627998,-0.00367776,-0.00963426,-0.0114262,0.00591809
0.00724214,-0.0137269,-0.00693068,-0.00722158,-0.00739473,0.00639051
-0.0274149,-0.0126373,-0.00196964,-0.00879729,-0.0127746,0.00686991
0.000740796,-0.0105312,-0.00593953,-0.0115695,-0.00622016,0.00298756
0.00287686,-0.00733621,-0.00377235,-0.00637448,-0.0122222,-0.000917137
0.00073966,-0.00946639,-0.0059402,-0.0104959,-0.00811058,0.00327909
0.00178245,-0.00626721,-0.00271,-0.00996435,-0.0104913,-0.000300646
0.0125461,-0.000959473,0.00168251,-0.0114115,-0.00935203,0.00200468
0.00502018,0.0128824,-0.00377395,-0.0133946,-0.00796831,0.00885928
-0.0912616,0.0406337,-0.00274491,-0.0117275,-0.0316355,0.0174372
-0.0549263,0.0884929,0.0340167,-0.00783741,0.00135905,-0.00683165
0.0733124,-0.0052564,-0.0179676,-0.00387424,0.00980496,-0.0126598
0.138439,-0.055331,-0.0364551,-0.00165385,0.00175059,-0.000703871
0.107373,-0.110655,-0.0592382,-0.00308216,-0.0193198,0.0132008
-0.0985923,-0.00619695,-0.0209893,-0.0121871,-0.0487045,0.0279864
-0.053888,0.0746564,0.0394005,-0.004336,-0.010655,-0.00575525
-0.0990777,0.0321116,0.021794,-0.0181221,-0.0113407,0.0136845
-0.0281186,0.0661118,0.0578964,-0.00335419,-0.00304902,-0.00692636
-0.0665784,0.00334911,0.0189801,-0.0149463,0.00546885,-0.00215149
0.0492295,0.0107209,0.00851086,-0.0129098,-0.00358611,0.00275564
-0.0427013,0.0256867,0.00851977,-0.0117171,-0.0158732,0.0153733
-0.0548436,0.0831764,0.026533,-0.00638431,-0.00171828,0.00968575
0.00686092,0.0767451,0.0208133,-0.010378,-0.00345957,0.00394857
-0.0144564,0.0384433,-0.00509179,-0.00336766,-0.00339878,-0.00139678
0.088402,0.0202784,-0.0156813,-0.00683051,0.00361419,0.00238442
0.105937,-0.00208214,-0.035803,-0.00262964,-0.00371766,0.00754035
0.0377934,0.00115799,-0.0344407,-0.00878191,-0.0178351,0.0136749
-0.00460719,0.020346,-0.0145944,-0.00802314,-0.0170947,0.0156611
-0.110814,0.00764643,0.00884372,-0.00167418,-0.0323485,0.00675112
-0.0459731,-0.00304846,0.0138702,-0.0111623,0.00342882,-0.0131234
0.119763,-0.00635967,-0.0131617,-0.0037452,-0.00530016,-0.000299454
0.0961057,-0.0457304,-0.0219632,-0.00898957,-0.0217826,0.0104386
0.0374509,-0.00416799,-0.00124118,-0.00560033,-0.0200629,0.0202537
-0.0231818,-0.00945231,0.00663698,-0.00565791,-0.0152435,0.00978535
-0.0676352,-0.0221923,0.0189997,-0.00434256,-0.0145037,0.00973547
-0.000878725,0.000110074,0.0443659,0.00394088,0.0106587,0.00557566
-0.052459,0.00653679,0.0127165,-0.0204648,-0.00912076,0.0142808
-0.00479446,0.0735652,-0.00180179,-0.010499,-0.017666,0.00832099
0.0460662,0.00965638,0.000975566,0.00405079,0.00144231,-0.0106618
0.0190668,-0.0116093,-0.000375687,-0.00556457,-0.0260308,0.0149382
-0.0437308,0.00653257,0.00532078,-0.0105442,-0.00617892,0.00445139
0.0309326,-0.00629538,0.0018961,-0.00676739,-0.00219434,0.00608122
0.0231285,-0.00523338,0.0242886,-0.00534391,-0.0304628,0.000559986
-0.0331617,-0.0179673,0.0311585,-0.00831735,-0.00439942,-0.000845969
-0.0911511,-0.0573027,-0.00372491,-0.0246599,-0.0499945,0.0231318
-0.102147,0.0768018,0.104162,-0.0136319,0.0193834,-0.00142252
0.0622678,-0.0073857,0.00439087,-0.0115299,0.0158932,-0.0188363
0.00128678,-0.064805,-0.0529885,-0.0116287,-0.00293708,0.00546896
0.113763,-0.0244371,-0.0581788,-0.0187176,0.00147063,0.00778747
0.0899196,-0.00100704,-0.0552662,-0.00984246,-0.0289776,0.0213304
-0.0394424,0.0661366,0.00316465,-0.000627816,-0.00767165,0.0159605
0.0675403,0.0809623,0.0086492,-0.00677502,-0.00497401,0.00591195
0.00431884,0.00118689,-0.0390989,-0.00612712,-0.0208033,0.00161225
0.0604534,0.0235003,-0.0320572,-0.0122486,0.00233257,0.00273335
0.153322,0.0734629,-0.0246263,-0.00562787,-0.0173684,0.019633
0.000621948,0.029917,0.00151452,0.00240576,-0.0177114,0.00178748
-0.02643,0.0171629,0.0044332,0.00349557,-0.0344676,0.0334671
-0.0600324,0.0108021,0.0126288,0.000220776,0.000498652,0.00697619
-0.0330832,-0.00731927,0.0225846,-0.00103438,-0.00680077,-0.0048331
-0.080872,-0.0168696,0.043467,-0.00954533,-0.0274788,0.00714368
-0.190968,-0.0753241,0.0294372,-0.00343066,-0.00883651,0.00331628
-0.0450149,-0.0243466,0.0278156,-0.0165148,0.00658476,0.00217086
-0.0298097,-0.0371264,0.0226516,-0.00515723,-0.00655329,-0.000721216
0.0144985,-0.0371578,0.0252974,-0.008412,-0.0083822,0.0093748
-0.0362788,-0.0435112,0.02151,-0.0147662,-0.0171528,0.000903428
0.0352973,-0.0350383,0.000904051,-0.0201985,0.00632763,0.00163651
0.0775755,-0.00952336,-0.0114963,-0.0173166,-0.0077551,0.0102215
0.0494352,0.0171149,-0.011834,-0.00809646,-0.012359,0.00431406
0.0300441,0.00222593,-0.0173953,-0.00541413,-0.00729543,0.00508976
0.0288989,9.1902e-05,-0.0109874,-0.00131625,-0.0214956,0.00762862
-0.00572717,0.00119369,-0.00922363,-0.010335,-0.0163748,0.00742269
0.0419957,-0.0105569,-0.0215321,-0.0108215,-0.00382948,0.00349259
0.0288846,0.00222487,-0.00991342,0.000210881,-0.021687,0.0076502
-0.0339788,-0.0147618,0.00545507,-0.00941956,-0.0153223,0.00720841
0.00388656,-0.0147871,0.0037454,-0.00666404,0.00336868,0.0038709
-0.00910239,-0.010526,0.00465691,-0.00939679,-0.0135565,0.00928849
-0.0243217,-0.0296758,0.0141422,-0.00531375,-0.0139443,0.00632036
-0.0155677,-0.0211668,0.0035219,-0.016143,0.00558519,0.00459462
0.0309143,9.39099e-05,0.00296381,-0.0100176,-0.0107005,0.00807804
0.0190718,0.0171311,-0.00361739,-0.0134712,-0.014469,0.00919455
0.0266395,0.0171298,-0.00352617,-0.00640666,-0.00499606,0.00829905
0.0114911,0.0182,-0.00263479,-0.00509471,-0.0173739,0.00958443
0.00611087,0.00330206,-0.00375133,-0.0052141,-0.0152272,0.00983882
-0.0134885,0.00544494,0.00887663,-0.00355268,-0.0104039,0.00779772
-0.00802956,0.00863567,0.00358174,-0.00493956,-0.00483531,0.00659788
0.00284569,0.00224007,-0.00164505,-0.00825858,-0.0110582,0.00501603
0.0377767,-0.0509947,-0.0279552,-0.00994027,-0.0117399,-0.00183439
0.00781582,0.0682281,0.0336847,-0.0173492,0.0127327,-0.00383598
0.0520268,-0.0318425,-0.0481598,0.000694036,-0.00107622,-3.46899e-05
0.0365948,-0.0275822,-0.0205026,0.000854254,-0.0143804,0.0125682
-0.0654177,0.0352868,0.00825683,-0.0174556,-0.0272787,0.0232462
0.0685744,0.00432047,0.0205189,0.00746995,0.00590926,-0.0193685
0.0172452,-0.028629,-0.0314272,-0.0241644,-0.00750774,0.0164583
0.0489276,0.0437148,0.0341744,0.000500619,-0.0052042,0.0051229
-0.028494,-0.0381796,0.000190715,-0.0105752,-0.0150062,0.00970858
0.00599298,-0.0137295,0.00911671,-0.00236809,-0.00624871,0.00595701
-0.0123414,-0.0158435,0.00462861,-0.0159001,-0.0138315,0.0133405
0.0124615,0.00436499,0.0091764,-0.0053302,-0.00245845,0.00804788
-0.0144628,-0.0126453,0.00032128,-0.0119137,-0.00223517,0.00436926
0.0547178,0.0181703,-7.35745e-08,-0.0055573,-0.00345647,0.0108947
0.00619051,0.00223823,-0.011246,-0.0219499,-0.012707,0.00710428
0.0387389,0.0362815,-0.024829,-0.0014962,-0.0169542,0.0152011
0.0159636,-0.0190501,-0.0132458,0.000157595,-0.00594592,-0.00116402
-0.000406351,-0.0126569,0.000478975,-0.00883281,-0.0240278,0.0193938
-0.0642681,-0.0211335,0.00725104,-0.00778913,-0.0142428,0.0011729
-0.00804469,0.0011848,0.00573155,-0.0111763,-0.00420558,0.00351024
0.0223784,0.0203283,-0.0100015,-0.0120935,-0.0136198,0.0092752
0.000856271,0.0288652,-0.0209578,-0.00441909,-0.00705117,0.00637311
0.027777,0.0171291,-0.00886844,-0.00523186,-0.0133787,-0.000152707
-0.0166303,0.00438434,-0.000795542,-0.00487757,-0.020348,0.00893027
-0.0372467,-0.00198514,0.0064773,-0.0065617,-0.00737005,0.00342399
-0.0232213,0.0075786,0.00876112,-0.0110255,-0.0131501,0.00460863
-0.0134803,0.00863768,0.00780167,-0.00670207,-0.00748992,0.00166273
-0.0286498,0.0065219,0.0108476,-0.000941634,-0.0110618,0.00162405
-0.0211221,0.00331969,0.0152162,-0.00937045,-0.0122378,0.0101226
-0.0329773,-0.000931346,0.0118704,-0.00540948,-0.00362372,-0.00130737
-0.0296585,0.00120166,0.00441673,-0.0178077,-0.0109324,0.00638944
0.00399848,0.00756961,-0.00912446,-0.0174336,-0.0041905,0.00159407
0.0278198,0.0192582,-0.0131541,-0.0104033,-0.00973213,0.00276262
0.016937,0.0107511,-0.00577082,-0.00859129,-0.0151011,0.00592387
-0.00582258,-0.00201101,0.000403554,-0.00506759,-0.0141808,0.00509369
0.0342107,-0.0180079,-0.000198569,-0.00987393,-0.00711703,0.000931501
0.0212576,-0.0414095,-0.000313155,-0.00700867,-0.00888121,0.00772858
0.0124984,-0.0105352,0.00705247,-0.00875676,-0.0162396,0.0110982
-0.0307872,-0.00731429,0.00976634,-0.0057776,-0.0167378,0.0072059
-0.0286155,-0.0051873,0.00871734,-0.011198,-0.00734341,0.00249946
0.00501002,-0.000949087,-0.00160994,-0.0121148,-0.0104449,0.0108946
-0.0134419,0.0256723,0.00243402,-0.00770223,-0.0140129,0.0118896
-0.00594821,0.0341784,0.00893167,-0.0123779,-0.0033102,6.25849e-05
0.0548287,-0.00417737,-0.00853735,-0.00306702,0.0059703,-0.00915533
-0.131339,-0.0859823,-0.0876553,0.00759852,-0.0208513,0.0194479
-0.098134,-0.017892,-0.0637969,-0.0227429,-0.0214913,0.0109323
-0.0664937,0.0629672,0.00500862,-0.00479281,-0.0215639,0.00899732
0.27743,0.0520722,0.00142315,0.0158173,0.038232,-0.0192115
0.150913,-0.128828,0.122226,0.0180076,-0.107805,0.0269772
-0.336755,0.00885507,0.105863,-0.0611403,0.0302756,0.0373186
0.203324,0.00634333,0.0605937,0.0176784,0.0452764,-0.0176395
-0.124842,-0.0232424,0.112571,-0.0267146,-0.0476353,0.032697
0.0430168,0.0330652,0.0833752,-0.00628424,0.0212938,-0.018172
0.0585448,0.0234798,0.0471523,-0.0247821,-0.0108376,0.0162671
0.0981105,-0.0148491,-0.0101724,-0.00282848,-0.00983417,0.00176728
-0.097398,-0.00832002,-0.0316757,-0.0269446,-0.0141927,0.0127112
0.0199541,-0.0264907,-0.0838665,-0.000542164,0.0345719,-0.00821102
0.342667,-0.0373618,-0.127311,0.021843,-0.00472403,-0.00123012
0.0563632,-0.0307864,-0.0491895,-0.0190352,-0.035391,0.0347053
0.02809,0.0469164,0.0617738,-0.00671625,-0.0179771,-0.00655943
-0.0777512,-0.0849983,0.0617771,-0.0168835,-0.0174669,0.00728649
-0.0168658,0.104446,0.0119577,-0.012598,0.0335854,0.0140311
0.0127305,0.0150166,-0.0175986,0.00689042,-0.00768763,-0.00104403
-0.125865,-0.0338542,0.00443295,-0.0122125,-0.012862,0.00671613
-0.0883595,0.0129473,0.0326502,-0.0262935,-0.00523472,0.00659204
0.218837,-0.00963247,0.0265145,0.0229006,0.0276034,-0.0254575
-0.0329414,-0.0711835,0.0151568,-0.0121441,-0.0481209,0.0164087
0.00373653,-0.00947126,0.0176538,-0.014091,0.00524086,0.000840724
-0.0135358,-0.037134,0.0174863,-0.00562334,-0.0329013,0.0306529
-0.142274,0.0215086,0.0170432,-0.0260667,-0.0132375,0.0141882
-0.0305053,0.0129168,-0.019161,-0.0148804,-0.00550461,0.00842011
-0.12261,0.0214959,-0.0020108,-0.00905776,-0.0248824,0.0123272
-0.114763,0.0332098,-0.0297678,-0.0122652,0.0135701,-0.00704443
-0.0326724,0.0501795,-0.0224295,-0.0120767,-0.00462931,0.00816834
-0.0642539,0.0523247,-0.00137704,-0.00478476,-0.0314012,0.007864
-0.120667,0.0512936,0.0161824,-0.0149734,0.00828558,-0.00592285
0.0903819,0.0777637,-0.00392689,-0.0226585,0.0119732,-0.0105221
0.119957,0.0777468,-0.0400017,-0.00309074,-0.00444365,-0.00112224
0.00311119,0.0597348,-0.0327423,-0.00172997,-0.0243409,0.0175942
-0.043993,0.0661428,0.024538,-0.00727701,-0.01721,0.00272727
-0.000309093,0.0118343,-0.011315,-0.0111707,2.12789e-05,-0.00748158
0.0961328,-0.0425224,-0.0251606,-0.00377679,-0.0109081,-0.000182927
-0.00358269,-0.0350084,-0.00381933,-0.00628269,-0.0156322,0.00475657
0.0409056,-0.0254533,-0.0193808,-0.0115319,0.0077678,0.00377768
0.0180784,-0.0499218,-0.00569473,-0.00123215,-0.0277311,0.00781012
-0.0252838,-0.0488302,0.00451736,-0.0123681,-0.00481451,0.00710893
0.0504072,0.00327342,-3.10373e-05,-0.0152598,-0.0012027,0.0113819
0.172393,-0.00320784,0.0206311,-0.00245512,-0.000731945,-0.00259817
0.332788,-0.0735715,-0.00638875,0.0108302,0.0275897,0.0131758
0.0972451,0.00109452,0.0711726,0.000157833,0.0131664,0.0235277
0.048565,0.0479663,0.0684317,-0.0276026,-0.107423,0.0454707
-0.313088,0.150417,0.103855,0.00479102,0.00944328,0.00287348
-0.0987907,0.101317,-0.0125251,-0.0360407,0.0326077,0.00309014
-0.0333714,0.0831824,-0.0620944,-0.0194546,-0.0113012,0.00209689
-0.138779,-0.0285201,-0.00214214,0.0269442,-0.0454966,-0.0284246
-0.192754,-0.160474,0.00166135,-0.0215076,0.0127282,0.0232884
-0.162954,-0.0391302,-0.0677193,-0.0299296,0.0140805,0.0235907
-0.170284,0.0768819,0.00167676,-0.0186023,0.0314974,-0.00126672
0.137881,-0.0361751,0.0149246,0.00485516,0.00699115,-0.0168197
-0.141697,-0.205188,-0.119779,-0.045665,-0.0662997,0.0168375
-0.111828,0.0225801,-0.102535,-0.0371985,0.0327524,0.0156094
0.229244,-0.00429678,-0.0386812,0.0357094,-0.000928938,-0.0295792
0.187954,-0.100047,-0.114002,-0.0042116,0.0062983,0.0182366
0.231994,-0.0543164,-0.0899961,-0.0262842,-0.0554994,0.0427204
0.201195,0.144754,-0.0594901,-0.00106657,-0.0169369,0.0229229
-0.0506867,0.0714636,0.0437279,0.0304077,-0.0528203,-0.0117625
-0.535423,-0.0378236,0.08118,-0.00616097,-0.0286025,-0.0109442
0.140642,-0.0531933,-0.0407034,-0.0197052,-0.0507997,-0.0146216
-0.0840046,-0.0146989,-0.0711244,0.00527406,0.0495619,0.0172461
0.133983,-0.0265844,-0.0268909,-0.0171041,-0.0267426,0.0011304
0.0787812,-0.00100001,-0.024333,-0.0184344,-0.00448591,0.0193303
0.142985,-0.0212568,-0.0610533,-0.010102,-0.013272,0.0190396
-0.116865,-0.00832643,0.0719707,-0.00869668,-0.0123936,0.0175788
-0.223937,0.0215534,0.0707226,-0.0159991,-0.000617862,0.00242376
-0.135248,-0.0476734,-0.0277765,-0.00840569,0.00600833,-0.00408524
-0.295083,-0.0688411,-0.0456279,0.000609159,-0.00724399,0.0316737
0.0193494,-0.0499165,-0.0238806,-0.01502,0.00122112,0.0014295
0.0222555,-0.0137367,0.00502279,-0.0124825,-0.00788021,0.00540406
0.182808,-0.0393868,-0.0413109,-0.0115559,-0.0165547,0.0140213
-0.0358674,0.0352793,-0.0256643,-0.00255501,-0.0608405,0.0259963
-0.0718148,0.0640094,0.100239,0.0043292,-0.03589,-0.00439203
0.108852,-0.0915343,0.107797,-0.0141224,0.0187334,-0.000361443
-0.072303,0.0586815,0.147358,-0.0112979,-0.0548581,0.0328257
-0.283963,0.029042,0.122509,-0.00414848,-0.00268805,-0.0340279
-0.164133,-0.0529728,-0.0570153,-0.035898,0.0722107,-0.0287037
0.261835,0.0435835,-0.0576342,-0.0126254,-0.013026,0.00894725
0.114715,0.0479459,-0.0528841,0.0096311,-0.0295658,0.013391
0.0391884,0.0213965,-0.0665582,0.0102682,-0.0068298,-0.0050813
-0.0354317,0.0246444,-0.0663365,-0.0120198,-0.0190974,0.0351615
-0.0785928,0.133232,0.0176557,-0.0105343,-0.0292543,0.0374973
-0.0946212,0.0736097,0.108544,0.0276549,-0.036598,-0.0217443
-0.193893,-0.0806338,-0.000567292,-0.0268769,0.0368348,0.00642794
0.0642567,0.108645,0.00966081,-0.0423855,0.00302231,0.0236015
0.0586129,0.149118,-0.0750326,-0.0325995,0.0221803,-0.00294042
0.156351,0.0809275,-0.108123,9.89437e-06,-0.0121379,-0.0151327
0.0911316,0.043719,-0.072409,0.0163989,-0.0077709,-0.00239319
0.117895,0.0319805,-0.0453298,-0.0123246,-0.0126541,0.0163537
0.107043,0.00537496,-0.0390025,-0.00961995,-0.0389723,0.0154427
0.0473461,-0.0233296,-0.0150263,0.000307024,-0.00928229,-0.016914
0.0526576,-0.0190739,-0.00639951,-0.000480354,-0.000695527,0.0070914
0.109038,-0.00634125,-0.0218384,-0.011794,-0.0152317,0.0197154
-0.0110138,0.0267496,-0.0232266,-0.0111718,-0.0216191,0.0216859
-0.0487638,0.0980704,0.0640693,0.00963283,-0.0175818,0.0256362
-0.0694467,0.0139862,0.0853309,0.0117376,-0.020013,-0.00226307
-0.0806084,-0.0285922,0.122724,-0.0115639,-0.0003497,0.00235587
0.0724633,0.0298831,-0.043703,-0.0572894,0.0553255,0.0144669
0.08056,0.090541,0.00344226,0.00240123,-0.0291891,0.0155092
-0.0908948,0.1162,0.0582224,-0.0145676,-0.0032959,0.0101499
0.0623592,0.0458444,-0.00957577,-0.000937879,0.0249531,-0.0126396
0.0216389,-0.0531117,-0.0356333,0.00425941,-0.0315666,0.0152384
-0.132363,-0.0242659,0.00435416,-0.00126672,-0.0210474,0.00580961
-0.050413,-0.0115624,0.0256082,-0.00945497,-0.0078705,-0.00457686
0.0503696,-0.0148251,0.00533846,-0.0068891,0.00920331,0.00604141
0.0730382,6.10715e-05,0.00772316,-0.00931078,-0.0188199,0.00998753
0.0275742,-0.00522381,0.0125736,0.00264931,-0.0231556,0.00619423
0.0480891,-0.0201472,0.0170977,-0.00996232,-0.0108323,0.00407118
0.0126165,-0.0275657,-0.00256775,-0.0126913,-0.00529671,0.00343442
0.0699206,-0.0254807,-0.00192256,-0.00510395,-0.0111214,0.00738484
0.0130126,-0.0243909,0.0627454,-0.000932693,-0.0465649,0.0221648
0.0251414,-0.0488694,0.0425736,-0.0123601,0.00339836,-0.00269163
0.0239977,-0.0414226,0.0479017,-0.0108372,-0.0198108,0.00550723
-0.0193777,-0.060557,0.0613455,-0.00201869,-0.0298801,0.0152287
-0.112252,-0.0839032,0.0517522,-0.00409538,-0.0287929,-0.0082348
-0.0570398,-0.0743622,0.0448728,-0.00906295,-0.000918686,0.00452685
-0.0273285,-0.0445635,-0.00728243,-0.0323844,0.0108187,-0.002285
0.155915,-0.0106198,-0.0577016,-0.0211256,0.02657,0.00164819
0.159967,0.0511069,-0.0373782,-0.0088979,-0.0287139,0.0383121
-0.0437679,0.0640225,0.00313262,-0.00557172,-0.0367137,0.0149907
-0.0255107,0.0650696,0.0151151,-0.0026648,0.00168824,-0.00130105
0.0421119,0.00542187,-0.0343842,-0.0172628,-0.003896,0.00416905
-0.065753,-0.00726811,-0.0591522,-0.0123854,-0.0345033,0.0103965
-0.0884785,0.0629836,0.0390338,-0.00619495,-0.0237678,0.00486213
0.00569108,0.0405588,0.0326236,-0.00979006,0.00570065,-0.0120713
0.0580892,-0.0318571,-0.00740349,-0.00413895,-0.0155199,-0.00685346
-0.018768,-0.0552191,0.0024588,-0.00651884,-0.0105044,0.00510919
-0.0124663,0.00651618,0.0142521,-0.0186697,-0.0156928,0.0164405
0.0805991,0.0628643,0.00239819,-0.0152265,-4.52995e-05,0.00153804
0.0688495,0.0532948,-0.0105756,-0.00478196,-0.00745314,0.00910282
0.0125257,0.0395006,-0.000486652,-0.00280398,-0.0260032,0.0121245
-0.0265761,0.0501642,0.0151131,-0.0132231,-0.0131241,0.0141176
0.0234432,0.0692977,-0.013245,-0.00660336,-0.00876486,0.0102865
0.00935058,0.0607926,-0.00911178,-0.00116354,-0.0275995,0.00680637
-0.0157733,0.0363222,0.0173965,0.00106561,-0.015816,-7.99894e-05
-0.025421,0.0203625,0.0108767,-0.00514114,-0.00906754,0.00336277
0.00501993,-0.0232976,-0.000509945,-0.0116,-0.0258316,0.00914407
-0.119472,-0.0540764,0.0152455,-0.0185384,-0.0195118,0.00109249
-0.0381562,-0.0743601,-0.0030908,-0.00989115,0.00110054,0.000808716
-0.123627,-0.0881375,0.00237763,-0.00951982,-0.0202935,0.0109167
-0.0416339,-0.0637199,0.0182717,-0.0167133,0.00406551,0.00748694
-0.0014578,-0.0328736,-0.000574642,-0.0191381,-0.0156721,0.0059979
0.02035,0.0192739,-0.0228654,-0.014319,0.0114365,-0.0131366
0.353766,0.0956805,-0.0641337,-0.0538116,0.0291231,0.000702858
0.473435,0.142421,-0.0339149,0.0252715,-0.0521604,0.017362
-0.0214309,0.0757039,0.0376339,0.0155599,-0.0810683,0.0366931
-0.188864,0.018345,0.0261522,-0.0112177,0.0119403,0.00846672
0.053719,0.011796,-0.00748757,-0.00538671,0.0202593,-0.00786746
-0.0553127,-0.0168595,-0.0226126,0.00743204,-0.0262551,0.015304
-0.0958504,-0.0562257,0.0315776,0.00105852,-0.0307382,0.0105006
-0.103221,-0.0732546,0.01437,-0.0096333,0.00404614,0.00233829
0.0157924,-0.0275667,0.00389645,-0.019446,-0.0134588,0.0122412
0.023417,-0.0275709,-0.00137075,-0.0120649,-0.00867993,0.00709158
-0.00153312,0.00970053,0.00258983,-0.0148045,-0.0171626,0.0115704
-0.0264659,0.0288794,0.00657282,-0.00972152,-0.00395322,-0.00287127
-0.010143,0.0139677,-0.00179245,-0.0116293,-0.0109797,0.00493461
0.00928585,0.00118542,0.0027318,-0.00326967,-0.00527078,-0.00465304
-0.0112602,-0.0200834,0.00466894,-0.00910413,-0.0136698,0.00616997
-0.0232096,0.00439715,0.00770857,-0.011695,-0.0118766,0.0049758
0.00608118,-0.0147817,0.000565937,-0.00743449,-0.00833708,0.000498056
0.014743,-0.0147906,-0.000410166,-0.00623924,-0.0154873,0.00327891
0.0244412,-0.0275681,0.0040007,-0.00696248,-0.0085634,0.00693202
-0.0361475,-0.010494,0.00543686,-0.0110587,-0.0148329,0.0105002
-0.106453,-0.0179021,0.00784965,-0.016624,-0.0309706,-0.000276029
0.0591421,-0.00523915,-0.00740888,-0.0117847,0.00376064,0.0140935
0.0625475,0.00220817,-0.0234455,-0.00735307,-0.00632954,0.0068379
0.14568,-0.0095629,-0.00963986,-0.00648856,-0.0107686,-0.00212836
-0.0317065,0.00866206,-0.00738587,-0.0200856,-0.0175389,0.0200157
-0.00889662,0.016102,-0.0178385,-0.00464201,0.00208879,-0.00371432
-0.0261907,-0.000916657,-0.0169464,-0.00406384,-0.0100536,0.00428927
-0.00907011,0.0107748,-0.000704462,-0.00351745,-0.00212377,0.0053246
0.0299722,-0.0169295,-0.00880243,-0.00981236,-0.0123644,0.00570202
0.0200048,0.00649179,0.0114063,-0.00227308,-0.00368983,0.0111861
-0.00137056,0.00331931,-0.0123897,-0.00832176,-0.00255227,0.0074783
0.00414915,0.00119119,-0.0230295,-0.00625837,-0.0114984,0.00940078
-0.0272447,0.00653097,-0.0201846,-0.00698113,-0.0177009,0.006172
0.000845086,0.00545074,-0.0177168,-0.00544953,-0.00745147,0.00497949
-0.0218739,0.0171815,-0.0179795,-0.00557864,-0.00749075,0.00267226
0.00630801,0.00544469,-0.0230128,-0.00134283,-0.00834668,0.00881332
-0.0359313,-0.00303744,-0.0159824,-0.0139118,-0.0192759,0.0179795
-0.107229,0.021502,-0.0253778,-0.0133625,-0.0067054,0.0128969
-0.000416116,-0.014783,0.0015556,0.000381947,-0.0194819,-0.0118676
-0.0536924,-0.0221989,0.029873,-0.0121329,-0.026904,0.0160068
-0.0350137,-0.00623931,8.72063e-05,-0.00844324,-0.00397563,0.000487983
0.0234521,0.015012,-0.00890437,-0.01977,-0.00952613,0.00211859
0.0580571,-0.000982335,-0.00742774,-0.00155067,-0.0128732,-0.00259262
-0.0295756,-0.00517558,-0.00306125,-0.0108125,-0.0197886,0.00106543
0.0601022,-0.018018,0.00546168,-0.00754774,-0.0126515,0.00763619
0.0189705,-0.0403439,0.0114409,-0.00758553,-0.0129115,0.00240082
-0.00166109,-0.0190432,0.0176076,-0.0108906,-0.0108665,0.0123843
0.0232461,0.00756,0.0114498,-0.013128,-0.000448227,-0.00256217
0.0534201,0.0192428,0.0203435,-0.0108781,-0.0125639,0.0139446
0.0069563,0.0235343,0.0165987,-0.00891238,-0.0119042,0.00783044
-0.00818534,0.0171559,0.017501,-0.00589627,-0.00345731,0.00597143
0.00598158,0.00756559,0.00803184,-0.0123807,-0.0123735,0.00673974
0.0222598,0.00329984,0.00287042,-0.0104984,-0.00833142,0.00537604
0.0871649,0.00538563,0.00039663,-0.0160298,-0.00657654,0.00497234
0.0765368,-0.0222791,-0.0146868,-0.0056293,-0.0318255,0.00226092
-0.0641522,0.0172011,-0.00776269,-0.00728297,0.000716984,0.0129608
-0.0230969,0.00333627,-0.0029951,-0.00623351,-0.0174769,0.00374722
0.00285197,0.00544111,-0.00270947,-0.00619245,-0.00881708,-0.0034467
0.0626266,-0.0435618,-0.0266099,-0.00321978,0.00183976,-0.00203508
-0.0622347,-0.0360043,-0.0826385,-0.0180713,-0.0171859,0.0146368
-0.0856357,0.0651266,-0.0262506,-0.00955063,-0.020116,0.0184739
-0.0191654,0.0416759,-0.07258,0.00540733,-0.00430095,-0.00537908
-0.0435896,-0.0253874,-0.00533872,-0.0100281,-0.0499423,0.0246663
-0.0298807,0.0320715,0.0225921,-0.0246055,0.0211002,0.00878358
0.137039,0.126699,-0.0237911,-0.0295811,-0.00746429,0.0221952
0.0215012,0.150209,-0.0422529,-0.00721133,-0.00367957,0.0131906
0.0780767,0.235335,-0.0834533,-0.0326383,0.0178809,0.00829905
0.254632,0.303338,-0.117927,-0.0189298,0.00787866,0.00713307
0.227805,0.254402,-0.133165,0.00749797,-0.041881,-0.00565827
-0.0309263,0.182222,-0.202416,0.0044986,0.00758255,-0.00375009
0.476136,0.241431,-0.0950123,-0.0299822,-0.0155312,0.0232265
0.0888518,0.139518,-0.0703937,0.0255654,-0.0470256,-0.00128502
0.141418,0.072411,-0.0236843,0.00430965,-0.0267904,0.00402707
-0.0839158,0.0161451,0.0209254,0.00890547,-0.0554929,0.0215669
-0.196259,-0.0455085,0.0154323,0.0206713,-0.0107427,0.0114828
-0.429134,-0.241215,0.070804,0.0362553,-0.0490003,0.00732374
-0.464311,-0.409364,0.0384527,0.0190211,-0.0167597,-0.00517547
-0.360069,-0.504174,0.00653014,0.00534385,-0.00348449,-0.0026316
-0.331378,-0.527627,0.0572005,-0.0106733,-0.00162321,0.0176758
-0.232199,-0.456385,0.0796712,-0.0196705,0.00906825,0.0107197
-0.166825,-0.368092,0.12744,-0.00161064,-0.011394,0.0222728
-0.435586,-0.268914,0.173544,-0.00721645,-0.0288558,0.00732869
-2.04434,-0.557153,-0.243768,0.0514739,0.0493728,-0.0757987
-0.910101,-0.705878,-0.528433,-0.00359988,-0.0378509,-0.0339781
1.79326,-1.51034,-1.06557,0.24791,0.303783,0.0469211
-0.649546,-2.34381,-2.33123,0.236871,0.135782,-0.00657219
0.352207,-1.11944,-1.97096,-0.03598,-0.218707,0.305155
0.153447,-0.256232,-1.1432,-0.0367356,-0.274855,0.169455
0.910852,0.119792,-0.187394,0.0380652,-0.142732,0.069518
0.505703,0.387116,0.373076,0.0301259,0.0403169,-0.032062
0.232449,0.421394,0.337831,-0.0370775,0.00623536,-0.0430678
0.450913,0.215813,0.251639,-0.042412,0.0695648,-0.0260561
0.314951,0.208472,0.224414,-0.0385628,-0.0752406,0.00215816
0.280352,0.495798,0.610258,-0.0481131,-0.132789,0.0795455
1.00675,0.613311,1.04024,-0.0431898,-0.0303956,0.0886802
0.388064,0.81825,0.619727,0.0154106,0.0627821,0.037241
0.216795,0.988825,0.125097,0.0176798,0.0873651,0.031214
0.123764,1.17629,-0.0967204,0.0167788,0.0520799,0.0357965
0.0963987,1.19759,-0.0670749,0.0273086,-0.0657363,0.0276867
0.176922,1.16239,-0.00830285,0.0570228,-0.00197959,0.0137523
-1.12401,0.938614,0.535034,-0.0371426,-0.185856,-0.0830826
-1.76443,0.923057,0.767631,0.093215,-0.0695892,0.0152584
0.290639,-0.0607604,-0.010084,0.1292,0.363574,-0.0930619
0.138106,-0.245851,-0.0897996,-0.0943648,-0.0296055,0.0144242
0.286397,0.0244019,-0.0262799,-0.00915623,-0.0163025,0.051667
-0.0201049,0.087422,0.0130156,0.0100714,-0.0427814,-0.00461185
0.0520015,-0.0531245,-0.0438456,-0.00383651,0.0364091,-0.0283895
0.271229,0.155347,-0.036215,-0.0195851,-0.0321475,0.0557066
0.0678923,0.162946,-0.0331738,0.015311,-0.0359566,-0.0041095
0.13057,0.0745462,-0.0205983,0.0054388,-0.0446405,0.0210361
-0.108481,0.0257533,-0.00933978,0.0280625,-0.0329781,0.0121391
-0.530185,-0.148461,-0.202394,0.0505151,0.066551,-0.0880181
0.972356,-1.4362,-1.36937,0.296321,0.455,-0.244631
1.39448,-2.34526,-2.56076,0.20174,0.240396,-0.172881
2.85448,-2.71049,-2.1252,0.171504,-0.0110593,0.219508
0.926904,-2.31967,-1.38401,0.130902,-0.136603,0.283142
0.347149,-1.23153,-0.751367,0.0886257,-0.0366603,0.218846
0.584683,-0.437707,-0.378995,0.0504466,-0.0357588,0.110391
0.10105,-0.140412,-0.175971,0.0324546,0.0197452,0.0720475
-0.0511623,-0.0626116,-0.104963,0.000276387,-0.0121122,0.0295004
0.0173097,-0.037144,-0.0367724,0.000187695,-0.00681067,-0.0394354
0.0515353,-0.24259,-0.084353,0.00927335,0.0174431,-0.0904962
0.315971,-0.430119,-0.121857,-0.00161207,0.0201292,-0.043792
0.0352986,-0.367093,-0.174349,-0.0264691,0.00751424,0.0413907
0.0378527,-0.142483,-0.233438,0.00596172,0.00980034,0.0251774
0.0364451,-0.100995,-0.102859,-0.00177526,-0.0280402,-0.0171915
0.136598,-0.200082,-0.0534509,-0.013729,0.00268197,-0.0327794
0.14782,-0.196882,-0.0929376,-0.0126329,0.00821447,0.0152268
-0.0123806,-0.0817858,-0.192313,-0.0722916,0.0194377,0.0514508
0.0830411,0.0587469,-0.541491,-0.0736582,0.0529441,-0.00435758
-0.203545,0.104807,-0.854225,-0.0433892,0.0700312,0.0181289
-0.374901,0.44984,-0.943238,-0.0231942,-0.035339,0.168656
0.156787,1.18903,-0.0503118,0.0935259,-0.208214,0.157105
-0.487151,1.01688,0.637455,0.145719,0.0193033,-0.0681741
-0.261829,0.0907792,0.0680924,0.109774,0.119723,-0.178191
-0.0696428,0.0331764,-0.00140896,-0.0402235,-0.0251116,-0.0807943
0.0499411,-0.136179,0.0579294,0.00524116,-0.00175337,-0.030306
0.0216234,-0.176615,0.0812032,0.0080595,0.00524727,0.00622493
0.000109947,-0.0988841,0.0626854,-0.0144137,0.00881194,0.0113097
0.031605,-0.00309947,0.0404628,0.00198233,0.0146435,-0.029673
0.136295,-0.28522,-0.119752,0.0472764,0.0693944,-0.11981
0.264353,-0.644039,-0.128657,0.0252874,-0.0153882,-0.0697037
0.394141,-0.765511,-0.0157096,-0.00593013,0.0121455,-0.0241175
0.418861,-0.694218,-0.00801246,0.00345755,0.030691,0.0283188
0.35683,-0.574952,0.0179429,0.00719714,0.0366476,0.0177658
0.275562,-0.445029,0.0211761,0.0148729,0.00575616,0.0454996
0.213599,-0.232148,0.238687,0.0183665,-0.0343675,0.0552157
0.140317,0.248955,0.582151,0.000272334,-0.077252,0.0814764
-0.163652,0.206567,0.699737,-0.0727161,-0.0296421,-0.00200057
0.240666,-0.0660273,-0.0909515,-0.0708972,0.0208699,0.0111523
-0.325328,0.744477,-0.230941,0.0157146,-0.0114232,0.219147
-1.43327,2.25989,0.302146,0.107313,-0.0512902,0.294517
-1.0392,3.27384,1.0926,0.128574,-0.0463408,0.147201
-1.04204,2.60956,1.32557,0.225713,0.23818,-0.128652
0.115635,1.19105,0.472796,0.203687,0.280668,-0.308615
-0.172228,0.555894,0.0375993,0.00252065,-0.00994098,-0.187308
0.194792,0.230936,0.130946,-0.011601,-0.0211655,-0.073973
0.108511,0.0351394,0.128021,-0.00864553,0.0439377,-0.00680125
-0.0684264,0.00547825,0.0917882,0.00292546,0.0301531,0.028402
-0.100486,-0.0360076,0.0593398,0.00600645,0.0139482,0.00476962
-0.147275,-0.020013,0.0855618,0.00109601,-0.0154264,0.00942159
-0.127636,0.0182905,0.0653926,-0.00918408,0.0059557,0.0242341
-0.0210615,0.025661,0.110504,-0.000821903,-0.0127167,0.00685757
-0.298108,0.0279889,0.130919,-0.00999096,-0.0104412,-0.0129815
-0.0671763,-0.00411069,0.0768069,-0.0155336,0.0100089,-0.0260577
0.0444582,0.00646939,0.0513073,-0.0114455,-0.00160235,0.0111031
0.00476558,0.0192726,0.0197844,-0.00564012,0.00692141,0.00780457
-0.188021,0.0438869,0.0464809,-0.00657059,-0.00483102,0.0140361
-0.171252,0.0183424,-0.00362478,0.00515029,0.00953507,0.00775045
-0.213868,0.0183651,0.0387238,0.00110731,-0.0121081,-0.00306618
-0.27105,0.0343562,0.128007,-0.00420725,-0.0179241,-0.000135541
-0.351753,0.144041,0.182661,-0.00200593,-0.0268125,0.0487942
-0.0260853,0.175743,0.162766,-0.0163454,0.0150911,0.0051232
0.0552601,0.0969355,0.0438358,-0.0110185,0.0395817,-0.00892287
0.147716,0.0606901,-0.00433116,-0.00970495,0.0173463,-0.00583577
-0.0357805,0.0704136,-0.0374709,-0.00260764,-0.00797659,0.0249674
-0.219213,0.0599193,-0.0748649,0.00520098,-0.0243171,0.0184443
-0.653585,0.209269,-0.1217,-0.00133771,-0.0310484,0.0226272
-0.0936736,0.299308,-0.00408909,-0.025024,-0.00490701,0.0260665
0.195373,0.462981,0.156418,-0.0309103,-0.0105993,0.0234232
0.163971,0.538555,0.256634,-0.0256838,-0.0303419,0.0454466
-0.0568288,0.335372,0.398886,0.0760715,-0.0129545,-0.0722297
-0.4689,0.0131059,0.540153,-0.0272743,-0.102894,0.0582604
0.227348,0.439424,0.617216,-0.077947,-0.0183172,0.0569595
-0.125112,0.176805,0.429314,-0.0661561,0.0576624,-0.147813
-0.515529,-0.0814993,0.147832,0.00483418,0.174345,0.0251245
0.478472,0.105206,-0.201921,0.0599845,0.00129133,0.0782946
-0.562496,0.0708552,-0.236164,-0.0038631,-0.155267,-0.00222743
-0.772616,-0.0280006,-0.194553,-0.0262684,-0.0701991,-0.0873283
0.129703,-0.0914014,-0.439093,0.0267524,0.123472,0.0754114
-0.145956,0.0833457,-0.361025,0.0128043,-0.0811477,0.0452904
0.19765,0.266185,-0.353021,-0.132546,-0.0805166,-0.0208187
-0.121055,0.206731,-0.0653448,0.01748,0.148364,0.0764141
-0.805784,0.0698836,0.0726506,-0.0394213,-0.0305624,0.0237802
0.00308289,0.0299379,-0.0273474,0.00650531,-0.0518621,0.0211774
-0.305736,-0.240288,0.266005,0.00407857,-0.255785,0.00474614
-0.933805,0.0272956,0.530598,-0.000261962,-0.186612,-0.0164763
-0.970146,0.0912254,0.380218,0.026158,0.0418406,-0.0195121
-0.389639,-0.107104,0.00366397,0.00666994,0.0837072,-0.0349839
-0.0653952,-0.0232486,0.0115412,-0.0173519,-0.0123126,0.0100994
0.00428898,0.00435558,0.0669018,-0.0134774,-0.00711972,-0.0064314
-0.163207,-0.105155,0.066191,-0.0127062,0.0143348,-0.0338457
-0.236876,-0.124236,-0.0224212,-0.0191063,0.00709981,0.013079
-0.154846,-0.0370099,-0.0162218,-0.0140266,-0.0826011,0.0447023
-0.0523086,-0.000900248,-0.00118003,-0.0189022,0.0118795,0.0064857
0.202186,0.0212762,-0.0390056,-0.0146046,0.010457,0.0175063
0.0385365,0.0118073,-0.00337515,-0.00777578,-0.0149896,0.0269803
-0.19413,0.0886168,0.00568961,-0.00541276,-0.0113063,0.0178948
-0.279557,0.198319,-0.00502674,-0.0170796,-0.0153588,0.0432646
0.122233,0.208684,-0.0636561,-0.0595245,0.00816917,0.0617135
-0.0196992,0.408906,-0.0568969,-0.017033,0.00447983,0.00283533
-0.0665835,0.276965,-0.110828,0.0248493,0.0264815,-0.00131822
0.264623,0.133018,-0.126212,0.0445524,-0.0106932,-0.0341458
0.0844452,-0.037181,-0.0456353,0.0126019,-0.0413384,6.06775e-05
0.010139,0.0182046,0.02306,0.000592053,-0.0306195,0.00697702
-0.0295314,-0.0488211,-0.0030207,0.00917172,0.0182616,-0.00781673
0.0190397,-0.0648255,0.00718304,0.00172007,-0.0189185,-0.00193369
0.0212922,-0.167011,0.00838626,0.0148708,-0.00722218,-0.0122303
0.0961031,-0.213906,-0.00571884,0.00224447,-0.0586641,0.0192651
-0.23822,-0.220045,0.0119229,-0.0120029,-0.0604133,0.0271206
-0.362993,-0.25935,0.0555176,0.00486964,-0.0306973,0.00641173
-0.993992,-0.317451,0.114804,0.0199682,-0.0168058,0.000446558
-0.156002,-0.341457,0.020468,-0.0216726,0.0381384,-0.0235857
0.152027,-0.194784,0.0216763,-0.0268167,-0.000263035,0.0450392
-0.028119,-0.0488375,0.0687373,-0.0413635,-0.0250592,-0.00204915
-0.189459,0.115181,0.177031,-0.0401971,-0.00156444,0.0430689
0.0769809,0.0830303,0.243249,0.00994658,0.0291405,-0.0344586
0.88861,0.0644053,-0.0194984,0.00617379,0.135878,0.0342842
1.07854,-0.0645194,-0.0728944,0.0103079,-0.0855333,-0.00144351
0.431626,0.0136343,0.0471177,0.00215429,-0.057789,0.0408244
-0.085574,0.108715,0.170713,0.00399971,-0.0447142,0.0160559
-0.0282983,0.0564867,0.282771,0.00401962,-0.0360565,-0.00899005
-0.108289,0.0129012,0.284048,-0.0293916,0.000597477,0.00242394
-0.388365,0.0951025,0.172654,-0.0296584,-0.00137031,0.0402873
-0.24873,0.131193,0.155995,-0.042118,-0.00202453,0.00166345
0.0547624,0.0522758,-0.11137,-0.0285094,0.11898,-0.0397074
0.262272,0.0468145,-0.203249,-0.0292755,-0.013524,0.0400839
0.152788,0.0851908,-0.0781739,0.0127469,-0.0361331,0.0050174
-0.049851,0.0289081,-0.032236,0.00249618,-0.0200677,-4.72069e-05
0.000216402,0.0129076,-0.0616385,-0.0251223,-0.00536674,0.00429928
-0.147523,0.00237989,-0.0997082,-0.00627619,-0.0622207,0.0377987
-0.19857,0.0216028,-0.183817,-0.0170505,0.0234106,0.0155155
-0.0801199,0.0194033,-0.239218,-0.0292804,-0.0233992,0.0069809
-0.898955,-0.0108463,-0.316994,0.0516443,0.0326875,-0.0258476
-0.678227,-0.244128,-0.306766,0.0263472,-0.0442056,-0.0260419
-0.264421,-0.284918,-0.164985,-0.0078094,-0.0588784,0.0222338
-0.277016,-0.200861,-0.00246666,0.0185274,-0.0113974,0.0123952
0.325032,-0.269386,-0.17653,0.0214939,0.0326985,-0.0204693
-0.0264046,-0.211692,0.0239454,-0.0133157,0.0483853,0.0609308
-0.294219,0.00353828,-0.0317704,0.0216709,0.0340691,-0.0234468
0.0972431,-0.0946788,-0.0229503,0.0110325,-0.0475906,-0.0146402
0.477161,-0.149241,-0.0517871,-0.0337345,0.0574737,-0.00607586
0.0847772,-0.00844449,-0.0799389,-0.0398219,-0.0451188,0.0585901
-0.217039,0.0311968,-0.176538,-0.0123991,-0.0033136,-0.0204619
0.0878437,0.0671318,-0.0703374,-0.0241374,-0.00867051,0.0145259
0.598688,0.14764,-0.0164485,-0.0423203,0.0363932,-0.032656
0.214116,0.340581,0.0303997,-0.0197496,-0.0930957,0.0879479
-0.341903,0.484667,0.138527,-0.00497204,-0.134137,0.0846545
-0.859938,0.477569,0.248303,0.0508444,-0.0463458,0.0117676
-0.297721,0.190856,0.0782853,0.0320873,0.0912434,-0.110907
0.422525,-0.20668,-0.0951904,-0.0174357,0.0370972,-0.0365123
-0.211029,-0.154074,-0.0092639,-0.0390127,-0.0080567,0.0389336
-0.198065,-0.0774344,-0.0156089,-0.0407766,0.0290812,-0.0151582
0.35942,-0.0235208,-0.179598,-0.0350527,0.106984,0.0929145
-0.109596,0.209928,-0.127324,0.00258446,-0.0491966,0.0057494
-0.499007,0.134608,-0.00531514,0.0119569,-0.118355,-0.061982
-0.0366698,0.0437745,0.0503372,-0.0140085,0.053846,-0.0115734
0.570756,0.0869613,0.0753748,-0.0136356,0.0319635,0.0253283
0.930019,0.183547,0.145736,-0.0132649,0.0585692,0.00663233
0.707921,-0.312353,0.23365,-0.0290807,-0.0697587,-0.0668738
-0.348301,-0.107185,0.18722,-0.00145459,-0.110985,0.0699884
-0.0857702,0.10873,0.0861167,-0.0876687,0.0100741,0.0282776
0.227854,0.0893419,0.0854093,0.0264869,0.0625176,0.0582749
-0.0739344,0.0214311,0.100255,-0.0137445,-0.0487541,0.00112438
-0.574784,0.152736,0.104098,0.00550038,-0.0148227,0.0517743
-0.296358,0.0556687,0.0645117,0.00799322,0.0303073,-0.0864109
-0.00968441,-0.164856,-0.0283783,0.02368,-0.0164365,-0.00831383
0.245122,-0.219317,-0.0886111,-0.0606583,-0.143961,0.0753246
0.0359835,0.0341496,0.031902,-0.0169999,-0.0251875,0.0436766
-0.056205,-0.0360234,-0.0386751,0.0087713,-0.002069,0.00825685
-0.0772469,-0.0604737,-0.0924212,-0.00966716,-0.00533104,0.0307611
0.0956984,0.0788186,0.00469373,-0.0243589,-0.00391924,0.0332525
0.079463,0.0852134,0.00556948,0.00234926,-0.00747401,-0.00354838
0.0449232,0.0469218,0.00307854,0.00118077,-0.0181493,-0.00110435
-0.0904934,0.0523318,0.0261577,-0.00406969,-0.0263821,0.0127246
-0.0537761,0.0288906,0.0330286,-0.014771,0.00902778,-0.00212377
-0.016535,0.0203564,-0.0115143,-0.0172408,-0.011183,0.00721085
-0.014315,-0.0147717,-0.0135954,-0.00935167,-0.0166292,-0.00714225
0.107554,0.0383573,0.0123619,-0.0121932,-0.00353473,0.012195
0.0260144,0.0607582,0.0520997,-0.00145376,-0.0291145,-0.00448108
-0.0266268,0.0118394,0.0237138,-0.00499856,-0.0100851,0.00172251
-0.0236347,0.0395084,0.0451355,-0.00781119,-0.0307399,0.0185059
-0.133779,0.0310802,0.0310509,-0.00334638,-0.0286691,0.00645924
-0.137055,0.0183079,0.0353093,-0.00797814,0.00159633,-0.00218767
0.0291917,-0.0265035,-0.0366424,-0.0130854,0.0138569,-0.00271308
0.0937465,-0.00952381,-0.00701417,-0.00400329,-0.0369041,0.0184091
0.041393,-0.0137567,0.0362932,0.00544751,-0.0145568,-0.00304776
0.00376466,-0.0829177,0.0220132,-0.000168622,-0.0335202,0.00129962
-0.12274,-0.105181,0.0227399,-0.0024578,-0.0538681,0.0307785
-0.105547,-0.0892234,0.0314921,-0.0156477,-0.00457478,-0.000729799
-0.0363414,-0.0615985,0.0290355,-0.0143376,-0.00519377,0.00620055
-0.022322,-0.036062,0.0302398,-0.0197996,-0.0183081,-0.00294697
-0.0481535,0.0129284,0.0138403,-0.0202004,-0.0261461,0.0219627
-0.0412577,0.0416706,-0.0278731,-0.0116953,-0.000829995,-0.00270295
-0.00239595,0.0256761,-0.0199181,-0.00102174,-0.0206147,0.0173582
-0.0625317,0.0331555,0.0425655,0.00901157,-0.0238378,0.0222067
-0.0159269,0.000124311,0.0356308,-0.0113361,0.0153217,0.00151658
0.164998,-0.0106443,0.00450056,-0.00406253,0.00276887,0.00878847
0.143808,0.0542885,0.0598724,-0.0151308,-0.0170829,0.0284547
0.0445318,0.102268,0.0351432,-0.0190691,-0.0278593,0.0356269
0.104504,0.192709,-0.0210254,-0.000816047,0.0193086,0.0361109
0.771253,0.147533,-0.0765898,0.0120434,0.0213399,0.0128449
0.256242,0.0063286,-0.0362428,0.00753462,0.00816655,0.0313545
0.163854,-0.0319144,-0.090793,-0.00432587,0.0426213,-0.0402734
0.214447,-0.0543064,-0.0666352,-0.0167849,-0.000297129,-0.0205403
-0.785643,0.0273131,0.0118994,0.00639319,-0.0549992,0.0092144
-0.480585,-0.0197463,0.0057656,-0.00128353,0.018775,-0.0323994
0.0427278,-0.151046,-0.0781254,-0.0248256,0.0206738,-0.00860989
0.148166,-0.00849446,-0.0406663,-0.013328,0.00581121,0.0132754
-0.140574,0.0172664,-0.0418204,-0.0140972,-0.0446758,0.0123244
-0.195416,0.08116,0.0260245,-0.00591683,-0.0314965,0.0107065
-0.106648,-0.0029965,0.0249736,0.00222075,0.0430179,-0.0266154
0.0177805,-0.00947761,0.0188892,-0.0131459,-0.0452737,0.0170498
-0.108627,-0.0285445,0.00997854,-0.0109133,0.0134301,-0.0126383
-0.00721289,0.0352541,0.0260666,-0.0100182,-0.0234893,0.0272599
-0.067567,0.0310406,0.00717849,-0.00761819,-0.00527328,0.00254357
0.0395829,0.0139313,-0.000157556,-0.00819397,-0.0132002,-0.00377214
0.0359394,-0.000975308,0.0394368,-0.00125659,-0.0104405,0.00429577
0.0490136,0.0107306,0.0288708,-0.00121701,-0.011192,0.00965029
-0.101727,-0.0391801,-0.0284731,0.000343323,0.0188114,0.00463843
0.118662,-0.0414489,-0.11163,-0.0117993,0.00177836,0.00334615
-0.0788308,0.0395766,-0.0539931,-0.0204104,-0.0205942,0.000518978
-0.054057,0.0288895,0.0598004,0.00290602,-0.0051145,-0.0187784
0.107347,-0.0244461,0.0381272,-0.0119461,-0.01631,-0.0146317
0.252597,-0.0192171,0.00444016,-0.0166751,-0.00801814,0.0104637
0.00199646,-0.0307426,-0.020882,-0.00914562,0.0122972,-0.0283977
0.207141,-0.105386,-0.0870064,-0.012015,-0.0163851,-0.000682712
1.58857,-0.109584,-0.136665,0.00440931,-0.0728155,0.0124661
1.15071,0.00144456,-0.155659,-0.033711,-0.0606503,0.0518662
0.508918,0.187126,-0.122425,-0.0319692,-0.00637537,0.0970808
0.208686,0.324683,-0.173066,-0.0263202,0.0234854,0.0125029
0.158531,0.422663,-0.246547,-0.0179852,0.0308489,0.0306494
0.56293,0.402164,-0.344737,-0.0135005,0.0462505,0.0169835
0.2064,0.307672,-0.26302,0.0215039,-0.0174928,0.00786066
-0.245559,0.218585,-0.259492,0.00300139,-0.056892,-0.0106868
-0.115182,0.212097,-0.214101,-0.0233309,0.00654036,0.0134094
0.35288,0.148941,-0.191606,0.0365944,-0.00295895,0.052754
0.0860864,-0.0297466,0.00362506,0.0494315,-0.0579782,0.00259769
-0.557626,-0.0974313,0.14202,0.00278687,-0.071414,0.0571764
-0.567523,-0.0761417,0.155802,0.0459303,-0.0572833,-0.0172035
-0.9159,-0.510233,0.31824,0.0294249,-0.0984051,-0.0612264
-0.448487,-0.515884,0.293572,0.0151832,-0.0475643,0.0460026
-0.448393,-0.462664,0.279592,-0.0173699,0.0395854,0.0481943
-0.203705,-0.395742,0.140972,-0.0588198,0.0435446,0.0346661
-0.219181,-0.292483,0.163179,-0.0166591,-0.0294598,0.0556701
-0.426692,-0.223135,0.145769,-0.0312891,-0.0145221,0.00944531
-0.24483,-0.257328,0.130733,-0.00573969,0.0462834,-0.0187437
0.25449,-0.307708,0.0582759,-0.0512524,-0.0364338,0.0442259
-0.410988,-0.107104,0.0805184,-0.0248017,-0.0663288,0.0523387
-0.219613,-0.00614293,0.176813,-0.0238191,0.0589884,-0.0156457
-0.256276,-0.000767172,0.0628927,-0.0149537,0.0185862,-0.00608218
0.0195615,-0.0414249,0.0585551,-0.015081,0.0068664,0.00822634
0.227615,-0.016016,0.014851,-0.040218,-0.0188618,0.00235987
0.0114108,0.184274,-0.0113462,-0.0355709,0.0035522,0.0418749
0.0622417,0.30559,-0.023737,-0.0111417,-0.00578666,0.0295652
0.339557,0.269206,-0.0665996,0.00525653,-0.000979662,-0.00185156
0.274014,0.323523,-0.00851079,0.00333822,-0.0788817,0.0732484
0.0484118,0.393952,-0.0539698,-0.0294727,-0.0237393,0.0061655
0.0339821,0.167244,-0.0999486,0.0127895,-0.0252055,-0.0681125
-0.179683,-0.0869953,-0.118172,0.0127217,-0.0196899,-0.0138357
-0.1203,-0.126462,-0.00183236,-0.00764155,-0.0294871,0.0225106
-0.221295,-0.0572017,0.0322941,-0.00463963,-0.00589418,0.0166942
0.115525,-0.119177,-0.0109395,-0.0175631,0.00122899,-0.00338602
0.0353302,-0.103157,0.00419377,-0.0114415,-0.0129989,-0.000389636
-0.269554,-0.140189,0.0018466,0.0136847,-0.0153883,-0.0125762
-0.620226,-0.0824532,0.0256584,-0.0149196,-0.0259887,0.0274481
-0.176528,-0.0902257,-0.00571504,-0.0142815,-0.0122874,0.00351137
-0.0384754,-0.0360407,0.0236423,-0.0177758,-0.00400561,-0.00266659
-0.07624,-0.0243064,0.0146308,-0.0138172,-0.00810158,0.0102204
-0.105319,-0.0391813,0.00468432,-0.000371337,0.0120941,-0.00845516
-0.102949,-0.0232094,-0.0167174,0.000953555,0.00520951,0.00756299
-0.0794516,-0.01153,0.0102981,-0.0135052,-0.0108172,0.0150809
-0.176184,0.0641114,0.0498189,-0.0146446,-0.0153827,0.00655878
-0.0102096,0.0022567,0.0057134,-0.0101573,0.0185338,-0.0127964
0.0829391,0.0181648,-0.0103715,-0.0103273,-0.0159919,0.0200045
-0.0251755,0.00972341,-0.011595,-0.00549543,-0.0148336,-0.000497818
-0.0261029,0.00121225,-0.025516,-0.00927866,-0.0148923,0.00516975
0.00497,0.00437736,0.00160276,-0.0059638,-0.0153404,0.0052768
0.0168584,0.0192781,0.000660603,-0.0039376,-0.0108337,0.010875
-0.0295609,0.044866,-0.00952198,0.00298792,-0.0105401,0.00281978
-0.0261647,-0.0158186,-0.0180017,-0.0051626,0.000666142,-0.0159652
0.00195506,-0.0349976,-0.0165903,-0.0108911,-0.00871849,0.00209516
0.0686618,-0.0169626,0.0141226,-0.00754917,-0.0185522,0.0123052
-0.00924087,-0.00945092,0.0175205,-0.00265789,-0.0123681,0.000919938
-0.00378296,-0.0158431,0.0133027,-0.0100575,-0.0136701,-0.0095033
0.0202055,-0.00520758,-0.0067754,-0.0142652,-0.0197922,0.00816917
0.0145973,0.0182085,0.010267,-0.0152459,-0.0303585,-0.00171381
-0.029757,0.0193049,0.0119045,-0.00333846,0.00937027,-0.00591975
-0.0392686,-0.0211342,-0.00529593,-0.00416505,-0.0140767,0.00166512
0.0221565,-0.0169258,0.0146699,-0.000324249,-0.00755233,-0.00534016
0.0711676,-0.00311458,-0.0201218,-0.020649,-0.0149857,0.018815
0.134003,-0.0265746,-0.0290204,0.00264335,0.0125614,0.00755918
-0.00132873,-0.105259,-0.00585906,0.015013,-0.0514307,-0.0121965
-0.0252675,-0.0105026,-0.000866915,-0.0203681,-0.0341879,0.00645387
-0.0463785,-0.0328256,-0.0481916,-0.00380784,-0.00983584,-0.00627232
-0.132639,0.00235372,0.0278981,-0.0259078,-0.0303025,0.0344756
0.0094483,0.103354,0.0807949,-0.0163313,-0.00955498,-0.00679052
-0.0609494,-0.0328265,0.000897447,-0.0015384,-0.0152768,-0.00328261
0.0109348,-0.0509662,-0.0464564,-0.0178505,0.00434518,-0.0059849
0.0707818,-0.00844777,0.0173523,-0.0140722,-0.00853986,0.0132702
0.0717171,0.0266718,0.0280298,-0.0123055,-0.0140398,0.0154108
0.0197091,0.0213929,0.0381628,-0.00124025,-0.0200191,0.0147021
-0.0492787,0.022512,0.0170345,-0.00292081,-0.0137652,0.00673956
-0.00364426,-0.0211585,0.000465589,-0.00450778,0.00235325,-0.00235093
-0.0652663,-0.00727596,-0.00238967,-0.00404394,-0.0309968,0.021422
-0.036362,-0.00731091,0.0257682,-0.00439,-0.0180056,0.00698185
-0.0753237,-0.00514848,0.0285439,-0.00724089,-0.023058,0.00980079
-0.0501348,0.0320995,-0.00546857,-0.0170341,0.00516915,-0.00110638
0.0654304,0.0416133,-0.0962563,-0.0256107,0.0148653,-0.00424349
0.158114,0.0968992,-0.0716946,-0.00843644,-0.0157472,-9.29832e-06
0.137266,0.0436795,-0.0376191,0.00792009,-0.0276561,-0.00454617
0.0525523,-0.0137567,0.00322697,0.0144785,-0.0345396,-0.00497568
-0.0113677,-0.0797002,0.0207839,-0.00403643,-0.029619,-0.00321811
-0.0342065,-0.0914003,0.0344506,-0.0134441,-0.016741,0.00189525
-0.017802,-0.108444,0.0185871,-0.00978577,-0.0073818,0.00148696
0.053427,-0.065916,0.0279232,-0.0113069,-0.000870585,0.00914061
0.0135472,-0.0350154,0.012448,-0.0261406,-0.0132508,0.0015471
0.0753804,-0.0137663,-0.0082868,-0.0120515,-0.00735998,0.00831217
0.0785495,0.0160359,-0.00399673,-0.00780237,-0.0161695,0.00862271
0.0625066,-0.014816,-0.0180645,0.00186837,-0.0163729,-0.000375867
0.00848058,-0.0286133,-0.020804,-0.00552845,-0.0189183,0.00714731
-0.0124209,-0.0169,0.0121363,-0.000944257,-0.0235751,0.0111905
-0.0621105,-0.00940665,0.00621745,-0.0118361,-0.00361055,0.00179476
0.0103491,0.00863284,0.00380367,-0.0149397,-0.00797331,0.0128592
0.000544077,0.0267337,0.00902708,-0.00392783,-0.0155258,0.00304788
0.0384191,0.0267154,0.00625541,-0.0103436,-0.0131547,0.000637531
0.00695732,0.009703,0.0176921,-0.000744343,-0.0292605,0.00730896
-0.0491875,-0.0126143,0.0117163,-0.00435543,-0.0131674,-0.00495946
0.000564637,-0.0275539,0.0122944,-0.00676042,-0.00640398,-0.00117248
0.000540988,-0.00519462,0.012279,-0.0139815,-0.00825971,0.0042702
0.013728,-0.013725,-0.00684859,-0.00867045,-0.0137081,0.00210541
0.0200827,-0.0158588,0.00607804,-0.00805712,-0.0223725,0.00422788
-0.0144449,-0.0552143,0.00251796,-0.00016892,-0.00926369,-0.00311017
0.0457948,-0.0478131,0.0321048,-0.00429511,-0.021826,0.0129561
-0.0776659,-0.0487968,0.0499729,-0.00203246,-0.0225554,0.00216693
-0.0722773,-0.042414,0.0510988,-0.0116213,-0.00983661,0.00189102
-0.0656348,-0.0413487,0.0361853,-0.0130396,-0.000722528,-0.00128943
0.00271132,-0.000942079,0.0112236,-0.0147796,0.00983274,0.00298846
0.0266904,0.0203326,-0.00887216,-0.0133102,-0.016588,0.00918347
0.0169849,0.00543904,-0.0100361,-0.00591654,-0.0129147,0.000581622
0.0223354,0.00543279,-0.00462311,-0.00898027,-0.0135021,0.00814492
-0.00576392,0.00332643,-0.00600813,-0.00773692,-0.0132151,-0.000994086
0.0310478,0.0096877,-0.0109506,-0.0111055,-0.0136607,0.00438678
0.0180506,0.0214037,-0.0100418,-0.0126451,-0.00889492,0.00271839
0.0722504,0.0384069,-0.0244245,-0.00856769,0.00589108,-0.00123352
0.00492807,-0.0105225,0.0069757,-0.00616693,-0.0113782,0.0139487
0.147053,0.0734529,0.0577562,-0.0226125,-0.0235411,0.0292317
-0.0489552,0.0235836,-0.0140145,0.00490773,-0.0304075,-0.0208204
-0.0927411,-0.0413009,-0.0604825,-0.0179154,-0.0165313,0.00177538
-0.00887826,0.0288868,-0.0210497,-0.00366092,-0.033043,0.00663751
-0.0454681,-0.0189905,-0.033203,-0.00334537,0.010084,-0.0100926
0.0708201,0.0543562,0.00765176,-0.0052945,-0.0293443,0.0200541
-0.10977,-0.0115124,0.0142328,0.00842428,-0.0172999,-0.00429034
-0.0867861,-0.0125759,-0.0122596,-0.0129471,-0.0184487,0.00168967
-0.0622018,-0.0189883,0.0158635,-0.00362647,-0.0225781,-0.00437707
-0.0210189,-0.0360495,0.00885039,-0.012856,0.00693208,-0.0107186
0.0431171,-0.0328913,-0.0236136,-0.0428911,0.00358438,0.00456411
0.00987902,0.00225785,-0.0540184,-0.0156255,-0.00928539,0.00219446
0.0487971,0.0405589,-0.0568169,-0.00962842,0.0172857,0.00917214
0.0908291,0.0426541,-0.0434934,-0.0010078,-0.0175927,0.0082112
0.0385155,0.0448026,-0.00448306,-0.0019269,-0.0342827,0.0103433
-0.00385202,-0.00412917,0.0186517,-0.00127017,-0.0259512,0.00389826
-0.0395492,-0.0221964,0.0214812,-0.00257236,-0.0194093,0.00385958
-0.0427759,-0.0275183,0.0203765,-0.00902212,-0.017202,9.86457e-05
-0.0418021,-0.0104857,0.0289415,-0.00617802,-0.0120999,-0.00260782
-0.0309523,-0.0243362,0.0269304,-0.0100377,-0.00300992,-0.00228584
0.000427183,-0.0147762,0.0240671,-0.0128685,-0.00701761,0.00377887
-0.0115084,-0.0179603,0.0282198,-0.00519055,-0.025246,0.0107628
-0.100251,-0.0253534,0.0357808,-0.000231445,-0.0223849,0.0145821
-0.0915146,-0.0115185,0.0262308,-0.0143554,-0.00799519,0.000458241
-0.0353216,0.0203727,0.0268343,-0.012021,-6.35386e-05,0.00439578
0.0267393,0.00436914,-0.0120644,-0.00479656,-0.00477856,-0.00899589
0.028873,-0.0116005,-0.0077416,-0.00830126,-0.0130941,0.00678432
0.0246823,-0.0233013,-0.0195526,-0.00611973,-0.00478333,0.000476956
-0.0002782,-0.0222148,-0.0112633,-0.0099262,-0.0157087,0.00652665
0.000851477,-0.00199591,-0.0177035,-0.0148331,-0.01087,0.00606161
0.0214261,0.0118277,-0.0217673,-0.00817853,-0.0201844,-0.00379032
-0.0423388,0.00548982,-0.0246233,-0.00472581,-0.0138674,-0.00716311
-0.0110651,-0.0679883,-0.00921017,0.00472939,-0.00666183,-0.00584412
-0.0624083,-0.0136714,0.035128,-0.0137666,-0.0359914,0.0258847
-0.110339,0.0406406,0.063436,-0.0226557,-0.00925839,0.00674212
0.0177282,0.0182075,0.0210148,-0.00111353,0.00184143,-0.00980979
-0.0696161,-0.028557,0.0018728,0.000827789,-0.0270003,-0.0064106
0.00493808,-0.0211644,0.00698987,-0.0133067,-0.0032413,0.00283396
0.0687884,-0.0105674,0.00127572,-0.00720823,-0.0174594,-0.00167853
0.0256466,-0.0179837,-0.00884138,-0.00447404,-0.00985479,0.00534189
0.0201594,-0.0158499,-0.00140711,-0.00218678,-0.0125307,0.00494641
-0.0262694,-0.0477453,-0.0051094,-0.00628722,-0.0182267,-0.00370669
0.0359076,0.030958,0.039404,-0.0312029,-0.00189006,0.0137644
0.0264757,0.0213969,0.0114742,0.00631964,-0.00824541,-0.00291914
-0.00444111,-0.0477654,-0.0241464,-0.00734508,0.00297582,-0.0146627
0.0831161,-0.0148244,-0.0242487,-0.019981,-0.00903165,0.0130149
0.093859,0.0330647,-0.0220372,-0.0129516,-0.0110058,0.0136317
0.0504391,0.0692843,-0.00971756,-0.00875521,-0.0105625,0.00937742
0.0061876,0.067194,-0.0177068,-0.00513709,-0.0189512,0.00132775
0.00519499,0.0246117,-0.0219658,-0.00246143,-0.014331,-0.00417531
-0.00873157,0.00653042,-0.0328109,-7.92742e-05,-0.0365679,0.0165649
-0.137989,0.0704812,0.0159855,-0.0115052,0.00855547,0.0156962
-0.00511095,0.0618649,0.0292781,-0.0107251,-0.00229973,0.00929153
-0.00693479,0.0469745,-0.00177505,-0.00168043,-0.0276015,0.0119132
-0.0459532,0.0299639,0.00850024,-0.00371921,-0.011974,0.00195187
-0.0503169,0.00228663,0.014899,-0.0129416,-0.0142353,0.00581539
-0.0524219,-0.0115441,0.0106118,-0.00362098,-0.0145596,-0.00075686
-0.0067706,-0.0264767,-0.0102729,-0.00851053,-0.00447983,-0.000240743
-0.00788014,-0.0328586,-0.00706075,0.000510693,-0.0202267,0.00587177
-0.0221521,-0.0413668,0.0142035,-0.00544262,-0.0139991,-0.00103867
-0.0351154,-0.0402986,0.012977,-0.00320339,-0.014066,-0.00454003
-0.00583157,-0.0520287,0.00582376,-0.0128232,-0.0114208,0.00254047
-0.027505,-0.059465,0.0109396,-0.0103505,-0.00208884,-0.00602084
0.0144833,-0.047788,0.0274684,-0.0122361,-0.0155419,0.0118518
0.0446999,-0.0233275,0.0309998,-0.0111846,-0.00296152,0.000496864
0.0111193,-0.0179787,0.0359716,-0.00758219,-0.0283355,0.000213504
0.0189982,-0.0360785,0.00823346,-0.0146835,0.00133812,0.00344318
-0.00369106,-0.0211507,0.00475928,-0.00696367,-0.022486,0.0155653
-0.0666534,0.00656119,0.0254262,-0.0165815,-0.023069,0.0111585
-0.0969718,0.017225,0.0282812,-0.0169127,-0.00430012,-0.00167155
0.0371176,0.0448107,0.0255,-0.0179743,0.0049181,-0.00503606
0.0797814,-0.00205055,-0.0168045,-0.000876069,-0.00852734,-0.0137448
0.0278402,-0.00520666,-0.0131069,-0.0145226,-0.0196271,0.0143461
0.0526098,0.026707,-0.00643399,-0.0069133,-0.00579298,-0.00669563
0.0138846,-0.0179604,-0.0218088,-0.00136518,-0.0187829,0.00252408
-0.0152838,-0.0200703,-0.0242825,-0.00632989,-0.013535,-0.00254369
0.0181746,-0.00307171,-0.0196464,-0.0107752,-0.00713879,0.0132903
0.0246505,0.0192791,-0.0206639,-0.0129848,-0.0157764,0.000247121
0.00717577,0.0150304,-0.00372541,-0.00361252,-0.0248084,0.00656503
-0.00796607,0.0310072,-0.00498544,-0.0074777,-0.0113683,0.00604755
-0.0101723,-0.00411761,0.00252286,-0.00262237,-0.0244062,-0.00189739
0.0254237,-0.00628518,0.0114811,-0.0104041,-0.0121485,0.000497341
0.189938,-0.0159785,-0.00162964,-0.00602341,0.0202692,0.00804663
-0.0144686,0.00120656,-0.000745972,-0.0176163,-0.0212994,0.0138817
0.010356,0.0224785,0.00165762,-0.0119454,-0.00285596,-0.00360823
0.0797097,0.00220694,-0.0103836,-0.0142136,-0.00779432,-0.0014689
-0.0209494,0.00547071,-0.00189277,-0.00509554,-0.0181652,0.000429153
-0.0240254,-0.0168769,-0.0158244,-0.00365984,-0.00837398,0.00120825
0.010565,-0.0073232,-0.0154432,-0.00740266,-0.0221347,0.00582623
-0.0448197,0.00974613,0.00532994,-0.00468731,-0.0107659,0.00491041
-0.00592201,0.00332916,0.00898834,-0.0166456,-0.0143489,0.00430465
0.0766696,-0.0222697,-0.0275261,-0.00772786,-0.00559026,-0.0109037
-0.0186076,-0.00623509,-0.0179142,0.00422955,-0.0208654,-0.000420332
-0.0924326,0.0140396,0.00799999,-0.0110571,-0.0292581,0.0207806
-0.0826477,0.00657604,0.00382753,-0.00689828,0.000982344,-0.00733656
0.127987,0.0351547,0.0233147,-0.0169658,-0.002244,0.0080111
0.00196581,-0.0371152,-0.0176447,0.00126016,-0.00985426,-0.0109841
0.0266975,-0.0445929,-0.00344368,-0.00983024,-0.0162281,0.00120693
-0.0447729,0.00867812,0.00104278,-0.0101907,-0.0254757,0.00321651
-0.0122445,-0.00517743,-0.00606413,-0.00865579,-0.00859511,-0.00319505
0.0364264,-0.0201162,-0.00549833,-0.0106875,-0.0190589,0.00265813
0.0319876,-0.0179874,0.00515566,-0.00618255,-0.0135884,0.00608999
-0.0654885,0.0118873,0.0168715,-0.00546718,-0.0206586,0.0149433
-0.0511341,-0.0179217,-0.00863355,-0.0109522,0.00307888,-0.00734377
0.0473381,-0.0414101,-0.0128467,-0.00773716,-0.0119591,0.0125087
0.0580973,-0.0201367,-0.00954271,-0.00964582,-0.00533378,0.00314182
0.0342814,0.00650117,-0.00982792,-0.00387192,-0.00305367,0.00736463
0.0151752,0.00865116,-0.0443118,-0.0152489,-0.0145133,0.00382257
-6.79879e-05,0.0352758,-0.0370111,-0.00479436,-0.00652248,-0.0056144
0.0842854,0.0203045,-0.0360489,-0.00213039,-0.019776,-0.00298035
0.00628557,0.00120504,-0.0208435,-0.00537741,-0.027688,0.00468463
0.0212744,-0.00520373,-0.00568631,-0.00406861,-0.0125456,0.00405073
0.0374928,-0.0275691,-0.00333783,-0.0125292,-0.0109345,0.000729144
-0.0102475,0.00333481,0.00894246,-0.00519407,-0.0240993,0.0108506
-0.0103075,-0.00305696,0.0153681,-0.0101544,-0.0032236,0.000914454
0.0308347,0.00968541,0.00939417,-0.00506812,-0.0199052,0.0148234
-0.0134524,-0.000924462,0.00569234,-0.00498164,-0.0125228,0.00772429
0.00164535,-0.0169052,0.0112312,-0.00165582,-0.00879055,-0.00575888
-0.0395419,-0.0200596,0.0204183,-0.0134972,-0.0248019,0.0100542
-0.0654582,-0.0072728,0.0158201,-0.0131749,-0.011857,0.0018239
-0.0189133,-0.00304674,0.0109913,-0.00839698,-0.00756353,0.00663263
-0.0177817,0.0139843,0.00456135,-0.0148245,-0.0147606,0.000397444
-0.028619,0.0171821,0.00657293,-0.011722,-0.0139456,0.00612718
0.0158495,0.0139585,-0.00576947,-0.0103657,-0.00394827,-0.00535589
0.0006821,0.00971409,-0.00272104,-0.0045917,-0.0209247,-0.00313038
0.0093362,-0.00413707,-0.0015468,-0.0118214,-0.0176004,0.000853062
-0.000359444,-0.0062574,-0.00486592,-0.0098756,-0.0168394,-0.00091064
-0.0111827,-0.00731107,-0.00391286,-0.00617039,-0.00794679,0.003025
0.0277676,-0.0115926,-0.0056029,-0.0138689,-0.0100959,0.00301927
-0.0144454,-0.0115634,-0.00179948,-0.00767052,-0.0111785,0.000705481
0.0180057,-0.0137182,-0.00250316,-0.00680494,-0.00652671,-0.0013541
0.00716686,-0.0105136,-0.000482995,-0.0079987,-0.0131175,0.00179303
-0.0103006,0.00120148,0.0142936,-0.00770211,-0.0235054,0.00867116
0.0146532,-0.00520429,0.00708454,-0.0143228,0.00108194,-0.00179821
-0.000481914,-0.00944236,0.00692823,-0.0070163,-0.0151317,0.00590104
0.0223185,-0.0020104,-0.00246353,-0.0135262,-0.0130686,-0.000150502
0.00713341,0.0011922,0.00164295,-0.0109972,-0.0134277,0.00475341
0.00936443,-0.00093366,-0.00475005,-0.00678474,-0.0149294,0.00262642
-0.00144857,0.000136643,-0.00487636,-0.00931203,-0.0170525,0.00267911
-0.000457875,0.00119818,0.00369955,-0.0102505,-0.026605,0.0044409
-0.00691537,-0.00730822,0.00149847,-0.0137079,-0.004287,-0.00177348
0.0114691,-0.00945596,0.00170222,-0.00446153,-0.00940061,0.00279391
0.0190381,0.00012474,0.000715215,-0.0130756,-0.0164317,0.00662875
0.00598413,0.00225525,0.0080524,-0.0105,-0.0125927,0.00499207
0.0016582,0.0150295,0.00691651,-0.00920212,-0.0178043,0.00767648
-0.0188278,0.000152172,0.00242763,-0.00518805,-0.0113305,-0.00330293
0.00177108,0.0022608,-0.0027029,-0.0110146,-0.0146341,0.00321829
-0.0101211,0.000143425,-0.00283201,-0.00528407,-0.0152001,-0.00160849
-0.0155009,0.00653808,-0.00610752,-0.00623381,-0.0130521,0.00324941
0.00611456,-0.00625263,-0.00370932,-0.00921309,-0.0130067,0.00507331
-0.00475433,0.00546342,0.000438815,-0.00658798,-0.00993979,0.00246501
0.00176107,0.0118428,-0.00271014,-0.00753886,-0.013163,0.00724471
0.00285698,0.00864768,-0.00376685,-0.00652075,-0.00997013,-0.000105858
0.00279143,0.00651961,0.00266195,-0.00615549,-0.011604,0.00255537
0.000708803,0.00545645,-0.00485835,-0.00703806,-0.0109649,0.00378239
-0.0133811,-0.00518042,-0.000726549,-0.0101203,-0.0171323,0.00264466
-0.0133877,-0.0115595,0.000360589,-0.00742698,-0.0130127,-0.000529766
-0.0133888,-0.00943517,0.0003526,-0.00781775,-0.00966972,0.00369108
0.0180429,-0.00626553,-0.00679259,-0.0113049,-0.00218183,0.000775278
0.0244528,0.00437181,-0.000307368,-0.00816178,-0.0184008,0.0104387
-0.0145095,0.0086564,0.00245756,-0.00798833,-0.011642,-0.000519633
0.0255775,-0.00626947,-0.00349194,-0.00769007,-0.00587314,0.00806779
0.0125431,0.00864096,0.000627722,-0.00735921,-0.0121242,0.000747919
0.015795,0.00118423,0.000668024,-0.0123706,-0.00844729,0.00421584
0.00176224,0.000130682,-0.00163135,-0.00455332,-0.0197586,0.00257194
-0.00474301,0.00546307,-0.000632557,-0.0107131,-0.012257,0.00316858
-0.0144537,0.00865866,-0.00289422,-0.0109776,-0.0185059,0.00521028
-0.00582787,0.0107788,-0.000659509,-0.00770509,-0.0138476,0.0031417
0.0136885,0.00224671,-0.00471674,-0.00921601,-0.00579822,0.00269228
-0.00250755,0.0107857,-0.00810752,-0.00800586,-0.0187502,0.00297832
0.00389753,0.00544873,0.000526273,-0.00445169,-0.0142369,0.00335777
0.00492395,0.0139693,0.00482096,-0.0115252,-0.0146943,0.00405842
-0.0177886,-0.000921225,0.00671432,-0.00415868,-0.012073,0.00297529
-0.015664,0.00333424,0.00994634,-0.00638711,-0.0141416,-0.000323653
-0.0241501,-0.00410598,-0.00513131,-0.0114033,-0.0104857,-0.000174761
-0.0090182,0.00120609,-0.00496396,-0.00978392,-0.0152124,0.00698864
-0.0133372,0.00547141,-0.00608273,-0.00944734,-0.0181533,5.81741e-05
-0.0176434,-0.000916841,-0.00720219,-0.00617617,-0.0198195,0.000924885
-0.0263072,0.00228022,-0.00623592,-0.0069567,-0.00827634,0.00556391
-0.0101325,0.000144079,-0.00176025,-0.00963986,-0.0163686,0.00370449
-0.013475,0.00972331,0.00675658,-0.0119439,-0.00589144,0.00473207
0.0136185,0.0129048,0.000644304,-0.00674236,-0.0158868,0.00603157
-0.00803254,0.00652887,0.00361199,-0.00728869,-0.0132881,0.00306726
-0.0113185,0.00439973,0.00785778,-0.00534093,-0.0117475,0.0022701
-0.0156877,0.0043994,0.012088,-0.0104932,-0.0196856,0.00712663
-0.00909745,-0.00943886,0.00361376,-0.0106418,-0.0054841,-0.00287807
0.0093133,-0.0169022,0.00168947,-0.00735641,-0.0100341,0.00732273
0.0103769,0.00119072,0.00168088,-0.0148374,-0.0114435,0.00754815
0.0125175,0.00118644,0.00384383,-0.0101988,-0.0110043,0.00681692
0.0201764,0.00012005,-0.00463213,-0.0109682,-0.00934333,0.00409281
0.0147667,0.00225912,-0.0046877,-0.006688,-0.0161235,0.00400913
0.0158008,-0.00520011,0.000677541,-0.00443304,-0.0160347,0.00118977
-0.0274997,-0.0104912,0.00554658,-0.00741214,-0.0130203,0.0059315
0.00930797,-0.0105201,0.00167722,-0.00761092,-0.0102124,0.000900507
0.0158617,-0.0115794,-0.00466121,-0.00479805,-0.00874805,0.00372165
-0.00901419,0.00759653,-0.00603664,-0.00501251,-0.0165794,0.004462
0.013672,0.00544906,-0.00363763,-0.0105652,-0.0152853,0.00423616
0.00295292,0.00226271,-0.0123256,-0.00946724,-0.0138131,0.000920773
-0.00573108,0.00227045,-0.00920907,-0.00699544,-0.0186798,0.00406092
-0.00358741,-0.000926613,-0.00704215,-0.00928539,-0.011178,0.000831902
0.00510891,-0.025413,-0.00905809,0.0106877,0.0140482,-0.012302
0.0404092,0.0533236,0.0201729,-0.0301527,-0.0439053,0.0244377
-0.0197221,0.0150578,-0.0168733,0.00334406,-0.00346029,-0.0187948
0.0494094,-0.017992,-0.00641819,-0.00642234,-0.0268406,0.00937098
-0.0240192,-0.00196863,-0.0179739,-0.0162921,-0.00810105,-0.0042336
-0.00038082,-0.0094418,-0.00270943,-0.00570095,-0.0142279,0.00947905
0.0104865,-0.0083843,-0.00794134,-0.00918925,-0.0206861,0.011167
-0.0047533,-0.00624812,0.00151839,-0.00707543,-0.0148579,-0.00285625
-0.004757,-0.00305257,0.00151793,-0.00765276,-0.0113711,0.00487393
-0.0144241,-0.0104984,-0.00394173,-0.00772285,-0.0200413,0.00641799
-0.0142446,-0.000909057,-0.0221455,-0.00700885,0.00473875,0.00134999
0.0514243,0.00648619,0.00535831,-0.00863624,-0.0228233,0.0138883
-0.054537,0.00656203,0.00415463,-0.00876188,-0.00931078,-0.00456774
0.0027675,0.00758569,0.0048048,-0.0159588,-0.00765193,0.0029515
-0.0209861,0.008663,0.00131542,-0.00867176,-0.0122775,-0.000245512
-0.0101942,0.0171742,0.00250468,-0.0124266,-0.00295722,0.000705302
-0.00570643,0.000141437,-0.0113489,-0.00806856,-0.0110114,0.00330913
-0.017664,-0.00410493,-0.00505039,-0.00630713,-0.0166349,-0.00298071
-0.0264528,0.00121783,0.00768986,-0.00488782,-0.0149819,0.0030818
0.00169389,0.0118415,0.00371379,-0.0125869,-0.0115405,-0.000123322
-0.0187939,0.0118584,-0.00187153,-0.00835276,-0.0148324,0.00384271
-0.00584822,0.0171773,0.000419924,-0.00671631,-0.0112524,0.00480318
0.00705199,0.0277976,0.00696303,-0.00734198,-0.0129919,-0.00275612
0.011438,0.0107674,0.00275101,-0.00705904,-0.0145346,0.000611424
0.00271285,0.00545911,0.0101646,-0.00629783,-0.0129157,0.00269073
0.00282328,0.00864749,-0.000554296,-0.0058589,-0.00520134,0.00505948
0.0147665,0.00437945,-0.00470077,-0.00638556,-0.0142136,0.010958
0.00823071,0.00651856,-0.000485834,-0.00587678,-0.0142592,0.00723541
0.00165227,0.00758753,0.00800667,-0.00760257,-0.0199422,0.00534803
-0.0167131,0.00334198,0.00673012,-0.00285304,-0.0181284,1.2517e-06
-0.0220401,0.00334415,-0.000829951,-0.00529301,-0.0160347,0.00247222
0.0212858,-0.0169113,-0.00567264,-0.00833857,-0.00455463,-0.00334913
0.00179754,-0.0137028,-0.0037536,-0.00642741,-0.0166341,0.00322884
0.0147329,-0.00944768,-0.000389322,-0.00743473,-0.0109291,0.00420767
0.00181032,-0.00412212,-0.00590437,-0.00952834,-0.012459,0.00350511
-0.000308951,-0.0147601,-0.00912452,-0.00879312,-0.0193191,0.00868827
-0.0284797,-0.0339046,-0.00193364,-0.00345623,-0.0136212,-0.00695658
-0.0221068,-0.0190136,0.0077548,-0.00807381,-0.0240306,0.0103007
0.00060288,-0.0126381,0.00694172,-0.0150343,-0.000567198,-0.00349671
0.00275951,0.00439203,0.00587859,-0.0114697,-0.0124566,0.00635463
0.0190797,0.00437875,-0.00357766,-0.0100137,-0.00562727,0.00173998
0.00191191,0.0161109,-0.0176945,-0.00508142,-0.0143464,0.00465691
0.0407459,0.00755816,-0.00761703,-0.00965917,-0.00723398,0.00672841
0.0103807,0.00864225,0.00060283,-0.0105993,-0.0166384,0.00648379
0.0210827,0.00650574,0.0114373,-0.00458407,-0.0128781,-0.00202084
-0.0124189,0.00120629,0.00998951,-0.00826025,-0.0185699,0.00138533
-0.036321,0.00335352,0.0204281,-0.00358057,-0.0165495,0.00279456
-0.0342167,0.0161275,0.0247261,-0.0149099,-0.00814873,0.00229508
-0.0103718,0.015044,0.0196402,-0.0154521,-0.00152087,0.00511396
-0.000508119,0.0161076,0.00690618,-0.0117549,-0.00626999,-0.000245512
0.0299442,0.0182153,-0.0098863,-0.0132154,-0.0122076,0.00564003
0.0105371,0.00864659,-0.0143847,-0.00768775,-0.00828314,-0.00568616
0.0288517,0.019276,-0.00883449,-0.0063504,-0.0103521,0.0045374
0.0158998,-0.00413048,-0.00895533,-0.00539422,-0.0185534,0.00605589
-0.0154821,-0.0232678,-0.00500788,0.000131488,-0.0140949,0.00217462
0.023634,-0.0467115,-0.0206031,-0.0141494,0.00512147,0.00390655
0.0267768,-0.0233009,-0.0130999,-0.00512153,-0.0175959,0.00971514
0.0244849,-0.00732787,-0.0024255,-0.0120546,-0.0137184,0.00451839
0.0654684,0.0298934,0.00442237,-0.0110226,-0.0113164,0.0121815
-0.00695347,0.0193044,0.00254399,0.00105226,-0.0230157,-0.003052
-0.010156,0.000148464,0.000387185,-0.00925422,-0.0156816,0.00577044
-0.0351275,0.00335384,0.00973247,-0.00143063,-0.0180708,0.00145906
-0.0232442,-0.00836613,0.0120182,-0.00750059,-0.00508279,0.00631356
-0.00698354,-0.00624536,0.00792095,-0.00527686,-0.0162388,0.00994146
-0.0113168,0.00227233,0.00786186,-0.00801808,-0.00789273,0.00962269
-0.0209935,0.00334717,0.00239993,-0.0093627,-0.0131397,0.00621802
0.0146862,-0.00626088,0.00388282,-0.00725079,-0.00896531,-9.88841e-05
-0.0285996,0.00760798,0.00551935,-0.00653219,-0.0123193,0.000306845
-0.00473676,-0.00092311,-0.000625384,-0.00690037,-0.00455999,-0.0020858
0.0115441,-0.00732025,-0.0057878,-0.00576651,-0.0137651,0.000709593
0.00820688,-0.00306304,0.00273474,-0.00901711,-0.0142088,0.003443
0.00606378,0.000131563,0.000564693,-0.0109431,-0.00716853,-0.000943959
0.0232968,0.00117581,0.00717576,-0.0126703,-0.0135053,0.0113657
-0.0155881,-0.00730052,0.00354399,-0.00448108,-0.0132302,-0.00911832
0.0136636,0.00225693,-0.00256189,-0.0154488,-0.0160723,0.00604975
-0.0350866,0.00867078,0.00543657,-0.00638688,-0.0185881,0.0048309
-0.00042819,0.0161024,-0.000596942,-0.0119536,-0.00765038,-0.00112247
-0.00798407,0.0129216,-0.0017415,-0.00787032,-0.0136256,0.00423509
-0.00362199,0.0107841,-0.00490995,-0.0104294,-0.0103666,0.00219554
-0.0058484,0.00759073,0.00149229,-0.00869644,-0.00756067,0.00835305
0.0125626,-0.000933742,-0.000426641,-0.0107718,-0.0137833,0.000957429
0.0017812,0.00226568,-0.00376763,-0.0102096,-0.00817192,-0.000650048
-0.00688447,0.00759075,-0.00280467,-0.00229681,-0.0190426,0.00344831
0.00826249,0.00864675,-0.00370169,-0.00864303,-0.0122977,0.0036087
0.00929004,-0.00519185,0.0027503,-0.0075587,-0.0140653,-0.00215369
0.0179197,-0.0073274,0.004992,-0.00785428,-0.0135056,0.00357193
-0.00372728,-0.00837304,0.00689354,-0.0042423,-0.0144855,0.00918335
0.0060847,-0.0105088,-0.000490167,-0.0111215,-0.00882041,0.00268996
0.0158181,-0.000938023,-0.00146321,-0.0085305,-0.012059,0.00333458
-0.0112641,0.00440751,0.00251303,-0.00411212,-0.0192685,0.000751913
-0.0101184,0.00865911,-0.00391151,-0.0131106,-0.0111488,0.00444996
-0.00141079,0.0054671,-0.00915506,-0.00791335,-0.0116166,0.00286818
-0.0133141,-0.00623806,-0.00714239,-0.00580794,-0.0179682,-0.000382304
-0.0155793,-0.00517009,0.00247283,-0.00997883,-0.0241244,0.00532818
-0.0101777,0.000144859,0.00252446,-0.0130478,-0.00426865,-0.00133049
-0.000454821,-0.00305446,0.00371046,-0.00843036,-0.00948608,0.00723922
0.00712596,0.00652374,0.00164935,-0.0118557,-0.0117894,0.000341058
0.00609041,-0.00412577,-0.00157223,-0.0090934,-0.0126582,0.00596267
0.0190891,0.00544656,-0.00464541,-0.0104533,-0.0144455,0.00319988
0.0125793,0.00439065,-0.0025712,-0.008555,-0.0131918,0.00151265
0.0146985,-0.00732508,0.00281329,0.00123513,-0.0116332,0.00325155
-0.0307052,-0.00516018,0.00122878,-0.00423932,-0.0116436,0.00218201
-0.00688994,-0.0105005,-0.000638736,-0.00642943,-0.0175897,0.0109452
0.000663032,-0.00518738,0.000507986,-0.0105066,-0.00833571,0.00201416
-0.0123551,0.00334204,0.00357048,-0.0123021,-0.0172038,0.00640935
0.019058,0.00225543,-0.00142653,-0.0105314,-0.00922412,0.00237566
0.0126017,0.00545104,-0.0047193,-0.00992298,-0.0148874,0.000833631
0.013679,0.00864671,-0.00470634,-0.0117154,-0.0130099,0.00468946
-0.0111624,0.0044053,-0.00712815,-0.0027343,-0.010721,0.00292951
0.0385827,0.00756283,-0.00763763,-0.00714374,-0.0114356,-0.00212443
0.00833705,0.000137238,-0.0101109,-0.00709939,-0.01565,0.00316817
0.0137233,0.0203569,-0.0100714,-0.00764596,-0.0136051,0.00105554
0.0505369,0.0352375,-0.0160887,-0.0174829,-0.0110053,0.00521493
-0.0247833,0.0395515,-0.0522909,-0.0111361,-0.0232335,0.0125813
-0.0172372,0.0725483,-0.0533041,-0.00785691,-0.000204325,-0.00398654
0.0125493,0.0916723,-0.00801892,-0.0177592,-0.0106955,-0.00761271
0.131386,0.157582,-0.00352368,-0.0211043,0.000644207,0.010534
0.192892,0.192664,0.00570768,-0.00764108,-0.00871611,-0.0012359
0.206284,0.200118,-0.0348333,-0.0247654,0.00587618,0.00527543
0.19696,0.206523,-0.0745602,-0.00938869,-0.0106562,0.00659603
0.190689,0.236337,-0.0982189,-0.0281461,-0.0151476,0.0224841
0.208136,0.256553,-0.114101,-0.0120718,-0.00716609,0.00918472
0.214749,0.289544,-0.129057,-0.0225726,0.000664473,0.0146648
0.281857,0.296946,-0.135802,-0.00845313,-0.00740975,0.016758
0.191895,0.222504,-0.108894,0.0145498,-0.0443218,0.0119604
0.0952768,0.152307,-0.0660233,0.0121574,-0.0337667,-0.00528675
0.0213461,0.0118329,-0.0142642,0.0282291,-0.0295711,-0.00755209
-0.137827,-0.0710842,0.0139962,0.0135968,-0.0253426,0.00670099
-0.088349,-0.180771,0.0499978,0.00689298,-0.00135481,-0.0197099
-0.0942637,-0.209518,0.101356,-0.0172973,-0.0482365,0.0215434
-0.148613,-0.279742,0.135071,0.0403641,-0.0170566,-0.0156227
-0.142425,-0.327657,0.168381,-0.038765,-0.0196509,0.033296
-0.15266,-0.237181,0.20779,0.00101835,0.024719,0.0246631
-0.184507,-0.208376,0.0446512,-0.035,0.0064714,0.00261211
0.0387874,-0.122327,0.088857,-0.0161294,0.00558752,0.0170603
-0.0170585,-0.0871489,0.0485725,-0.00251961,-0.0118176,0.0194172
-0.0473442,-0.0647737,0.047135,-0.00428653,-0.0131476,0.00463319
-0.0602381,-0.079661,0.0405844,-0.00541985,-0.0196676,0.011055
0.0244553,-0.0988828,0.00943245,-0.0173791,-0.0014177,-0.00591379
-0.0990664,-0.0870793,0.0315889,-0.0113307,-0.0240228,0.00476646
-0.121916,-0.0764259,0.0441618,-0.0233029,-0.00116229,0.00538599
0.00275379,-0.0903484,0.0156079,0.00522387,-0.0279052,0.0114212
-0.188621,-0.0955272,0.0134476,-0.0206863,0.00374728,-0.0179241
-0.0072097,-0.0594762,0.0347378,0.00710893,-0.00660402,-0.00682199
-0.03097,-0.0647777,0.032336,-0.0136119,-0.0122432,0.000905752
-0.0296066,0.000160346,-0.000907431,-0.0283745,-0.0074541,0.00938904
0.029861,0.000119784,-0.000229354,-0.0149444,-0.00292367,0.015166
0.0396347,0.0150103,-0.00549478,-0.00791228,-0.0220628,0.0195217
-0.0303956,0.0661653,-0.0352462,-0.0250935,0.010747,0.0128353
0.0352926,0.141697,-0.0163647,-0.0148622,0.0101869,-0.000463545
0.100376,0.0916135,-0.0305796,-0.0107475,-0.0100433,-0.00157481
0.0691355,0.0980313,-0.0427115,0.00854689,-0.0111021,0.00975579
-0.0302452,0.00443181,-0.0437448,-0.00740302,-0.0282413,-0.00681657
-0.0412095,-0.0338852,-0.0256286,-0.0215361,-0.0202111,-0.00225949
0.0755513,-0.042489,-0.0221574,-0.0038178,0.00866604,-0.0101635
0.0281678,-0.0871628,-0.0365756,-0.00753039,-0.0020299,-0.00561988
0.0841456,-0.0424979,-0.016708,-0.0188774,-0.0231905,0.0162687
0.0190815,-0.0105157,-0.00248161,-0.00336993,-0.0261664,0.00514734
0.0253834,-0.0137246,0.0157873,-0.00701332,-0.0278023,0.00871468
-0.0350394,-0.02858,0.00440991,-0.00791615,-0.00510293,-0.00306737
-0.0966471,0.0034042,-0.00166899,-0.0151553,-0.0478361,0.032051
-0.174786,0.0907459,0.0166358,-0.0103055,-0.00782526,-0.00266117
-0.252573,0.0737706,0.0114853,0.00703573,-0.00464487,-0.0243378
-0.0741203,0.0257393,0.0135565,0.000351012,-0.0234109,0.0178005
-0.0246208,0.0171813,0.037682,-0.00715047,-0.0168967,0.0106255
-0.090412,-0.0232213,0.0251928,-0.0188025,-0.0361655,0.00460988
0.067955,-0.0254549,-0.0211931,-0.00844347,0.0244218,-0.00152123
0.37782,-0.119339,-0.0689782,-0.017946,-0.0145401,0.0390657
0.0403289,0.142748,0.0190238,-0.031792,-0.111372,0.0669638
-0.804764,0.25086,0.0607244,-0.0184776,-0.0120329,-0.00843304
0.011195,0.2737,0.000358813,-0.0230582,0.0910822,-0.00386345
0.46224,0.253142,-0.00843562,0.0146879,0.0305625,-0.000440836
0.514822,0.107287,-0.0590861,0.0121076,-0.0667519,0.00119925
0.184987,0.00318424,0.0561313,-0.00658691,-0.0501062,-0.00543284
0.459856,0.00299028,0.0367648,-0.0119719,0.0268336,-0.00179613
-0.0242582,-0.0094239,0.00558891,-0.00185233,-0.0691336,0.0178728
-0.0515437,0.0108119,0.0277405,-0.0223264,-0.0153233,-0.0226773
-0.301776,0.00888701,-0.0339769,-0.00323009,0.0142766,-0.00403279
-0.133465,-0.0870486,0.0119266,0.00452781,-0.0302082,-0.00197923
0.0265597,-0.064815,0.011573,-0.00421476,-0.0374079,0.0148715
0.374935,0.0211594,-0.013471,-0.0384316,0.0110107,0.0233792
0.424131,-0.0831798,-0.0545633,-0.00182289,0.0576457,-0.0539814
0.120099,0.281115,-0.177228,-0.0779623,0.0409563,0.162811
0.569153,0.577754,-0.12961,-0.0551341,-0.00574565,-0.06587
0.73375,0.381746,-0.0290438,0.0458326,-0.0655304,0.0138997
-0.269895,0.296266,-0.00819775,0.0384239,-0.100399,0.00641555
0.364738,0.119082,0.0216424,0.0187839,0.0104106,-0.0209978
0.352622,0.0286061,0.0515771,-0.00117028,-0.0355759,0.0284563
0.337827,0.0956631,0.115588,0.00783306,-0.0132465,0.00176489
0.862808,0.426295,0.241131,-0.0496792,0.0171952,0.0969913
-0.518557,-0.0559233,0.124243,0.102537,-0.0795399,-0.0158105
-1.09201,-0.650509,0.00590579,0.0140656,-0.128407,0.0191633
-0.742289,-0.408108,0.147747,-0.074181,0.0626146,0.0488349
-0.489983,-0.463664,0.22347,0.00116849,0.0660213,-0.0171855
-0.649692,-0.406027,0.0824135,-0.0397729,0.0016464,-0.00808775
-1.69685,-0.150828,-0.00786737,-0.0748171,-0.0420266,-0.00666851
-0.476567,-0.261271,-0.355828,-0.0347726,0.152171,0.000838518
0.596244,-0.184406,-0.164944,-0.0725539,-0.00776279,0.0552889
-0.346182,0.191985,0.0584932,0.00604963,-0.136231,0.018507
-0.235893,0.100355,0.0683956,0.00198293,0.0404708,-0.00582302
0.19454,0.0244636,0.0712097,-0.00876331,-0.000399768,-0.0220588
0.285654,0.0658923,0.143939,0.0132821,-0.0203592,0.0126437
0.0247097,0.0980423,0.0692195,0.00011313,-0.00874591,-0.0404214
0.306782,-0.233211,0.0138386,0.0325521,0.0308557,-0.0617076
0.140876,-0.246907,-0.0447688,-0.0261883,-0.018163,0.0369738
0.279955,-0.0021869,-0.0284457,-0.0226809,0.00419641,0.0404969
0.216026,0.0329861,-0.0195671,0.00325668,-0.0399599,-0.00664294
-0.0228855,0.0129338,-0.0244013,-0.0151541,-0.0157959,0.0177049
0.0331567,0.0033155,-0.00554446,-0.00814831,-0.0102597,-0.00483638
0.0501311,-0.0573613,-0.0716852,-0.00502384,-0.0152308,0.00545931
-0.0330867,-0.0104835,0.0226249,-0.0114852,-0.0352697,0.0155995
-0.0450014,-0.0104811,0.0246239,-0.0130888,-0.00873315,-0.0011794
-0.0729261,-0.0306793,0.00826915,-0.00503182,-0.0231497,0.00409138
-0.010932,-0.07116,-0.0220306,-0.0131251,-0.00375032,-0.00351882
-0.0434738,-0.0445281,-0.014933,-0.0117451,-0.00714934,0.0112891
0.0949695,0.0011416,-0.0219782,-0.0210994,-0.00331664,0.00628066
0.0796412,-0.00843589,-0.00287416,-0.0019843,-0.0391659,0.0052188
-0.00932208,0.0352684,0.0207036,-0.0243548,-0.0149502,0.00906479
0.106487,0.0756367,0.006986,-0.0150013,0.0110423,0.00769204
0.0526867,0.0820707,-0.0193259,-0.0114866,-0.00869673,0.00420189
0.045013,0.0969792,-0.0108587,-0.00788116,-0.012151,0.0105321
0.0311525,0.0586694,-0.0259718,-0.00257301,-0.0141214,-0.00137341
0.0472109,0.0288476,-0.00755859,0.000743985,-0.0334049,-0.000549138
0.0309532,0.000120481,-0.00128613,-0.00249851,-0.0165923,-0.000384808
-0.014405,0.0256975,-0.00932739,-0.0107499,-0.0248088,0.0210443
-0.00298209,0.0597431,0.0325287,-0.00420433,-0.00720364,-0.00474131
0.0330372,-0.044591,0.0105604,5.28097e-05,-0.0167158,-0.00487232
-0.0674564,-0.0839023,0.00731815,0.0106565,-0.0128181,-0.00773466
-0.082769,-0.109446,0.0264397,-0.01367,-0.0123404,0.0104363
-0.103235,-0.0530105,0.0133034,-0.0104501,-0.0161032,0.0134433
-0.049955,-0.016848,-0.0182479,-0.0189244,0.0159409,0.000688493
0.020437,-0.0158346,-0.0281609,-0.0116553,-0.00209546,-0.00714064
0.0508292,-0.031825,-0.0374416,-0.0124032,0.00457782,0.000742197
0.00955309,0.000137176,-0.0229488,-0.0177157,-0.0158614,0.0202199
-0.0317922,0.0225191,-0.000950006,-0.0125153,-0.0125427,0.0107999
-0.0146216,-0.00517167,0.0142643,-0.0161393,-0.0196927,0.00441045
-0.0330697,-0.00410045,0.0204719,-0.0167597,-0.00975847,0.00884956
-0.0353734,0.0235817,0.0311346,-0.0121326,-0.0158199,0.0174996
-0.0601969,0.0353068,0.0254835,-0.0124509,-0.00624216,0.00467652
0.00915266,0.00864542,0.0145157,-0.00733608,-0.00940269,-0.000930369
-0.0231719,0.00654835,0.00345103,-0.00683677,-0.015009,0.00461817
-0.0177908,-0.00197186,0.00673296,-0.0119209,-0.0208788,0.00216591
0.0147978,-0.0169044,-0.00574341,-0.0100543,-0.00769961,-0.00369626
0.00398247,-0.0147641,-0.00586375,-0.0064503,-0.0145501,0.00733072
0.0516624,-0.0094687,-0.0160289,-0.0151273,-0.0040195,0.000582159
0.0363816,-0.0105294,-0.00228677,-0.00585139,-0.0214435,0.00680977
0.00495051,0.00865247,0.00269135,-0.0104504,-0.0153795,0.00668275
0.0157069,0.0075836,0.00817413,-0.00348896,-0.0106342,0.00117296
0.0135489,0.00332672,0.0081531,-0.00782168,-0.0169258,0.00336999
0.010401,-0.0126431,0.000629213,-0.00708497,-0.0170026,0.00279814
0.0136356,-0.0168941,0.00175293,-0.0091126,-0.017189,0.00280392
-0.00583963,-0.0147529,0.00259853,-0.0114743,-0.0171331,0.00408298
-0.0221156,-0.0126167,0.0077613,-0.0102887,-0.016262,0.00494683
-0.0243036,-0.0094222,0.00987479,-0.0136239,-0.015006,0.00655961
-0.0145584,-0.000914056,0.00783416,-0.0167148,-0.00703937,-0.00012368
-0.0196755,-0.0115428,-0.0189746,-0.0163735,-0.0107486,0.00159502
0.0149078,-0.00624634,-0.0175173,-0.0135895,-0.000310063,0.00496244
0.0202133,0.0171617,-0.0099908,-0.0136528,-0.0188598,0.00401419
-0.0165823,0.00759935,-0.00612591,-0.00977707,-0.00879788,0.00149018
0.0212025,0.0203494,-0.00142053,-0.00557894,-0.0164495,0.00402111
0.00710937,0.012906,0.00270808,-0.0102253,-0.0166664,0.00288546
-0.0114581,0.0182465,0.0196353,-0.00552535,-0.0211183,0.00847995
-0.000519127,0.00545932,0.0090541,-0.0111807,-0.00574148,0.00372374
-0.00911325,-0.00623958,0.00468897,-0.00981283,-0.00742364,0.00698978
-0.00904423,-0.00836599,-0.00173127,-0.00626159,-0.0118309,-0.00142312
0.00180464,0.000141888,-0.00590082,-0.0141583,-0.0131658,0.00526237
0.0148453,0.00119959,-0.0121769,-0.0124915,-0.0117984,0.000451922
0.0169921,0.00545682,-0.0110845,-0.0104346,-0.0116618,0.00228786
0.0115581,0.000135845,-0.00793097,-0.00896078,-0.0114684,0.00549889
0.0255376,-0.00200349,-0.000273101,-0.00672376,-0.0128022,-0.000979304
0.00796439,0.00226353,0.0252243,-0.00450397,-0.0223514,0.00559384
0.0110462,-0.000947632,0.0413087,-0.0111681,-0.0139503,0.00214732
-0.0277955,-0.00729673,0.0333889,-0.00931799,-0.0184534,-0.00079143
-0.0116357,-0.00517804,0.0389274,-0.00424743,-0.00428629,-0.0082525
-0.0309157,-0.0413551,0.0248215,-0.0189775,-0.0275571,0.0226797
-0.0592722,0.0683033,0.0372415,-0.028699,0.00261581,0.00403053
-0.0540513,-0.0445145,-0.0375379,0.0102075,0.00505459,-0.0153019
-0.0282908,-0.0445419,-0.0190485,-0.0131193,0.00697708,0.00340748
0.0644886,0.0171264,-0.00413714,-0.0142969,-0.00943637,0.0109175
0.0352384,0.0277971,-0.000189158,-0.00399423,-0.0127724,0.00109822
0.0104821,0.0171689,-0.0101011,-0.0115061,-0.0158445,0.00650305
0.0180067,-0.00625496,-0.00356637,0.00146639,-0.0129851,0.000241458
0.0190005,0.00332072,0.00392809,-0.00866282,-0.0244958,0.00762361
-0.0199476,-0.00729413,0.00671184,-0.00445634,-0.0131343,0.00557542
-0.0242933,0.00228899,0.00772384,-0.0141646,-0.0104679,0.00883329
0.00393194,0.00120642,-0.00266249,-0.013355,-0.011229,0.0048691
-0.0198051,0.0182558,-0.00937415,-0.00941515,-0.0136447,0.00830251
-0.0067581,0.0012201,-0.014558,-0.00672281,-0.0104387,-0.000158846
-0.013253,-0.000911064,-0.0135674,-0.00483227,-0.0179971,0.00575989
-0.0154431,-0.00623567,-0.0103787,-0.002334,-0.0130443,-0.00348628
0.00184498,0.00334157,-0.0101797,-0.00858557,-0.013693,0.00606048
0.0104341,0.00865433,-0.00473645,-0.0125374,-0.015434,0.00539905
0.0126105,0.00652161,-0.00578354,-0.00959092,-0.0128255,0.000886321
0.0223041,0.0107703,-0.00246733,-0.0104098,-0.0199758,0.00338084
0.0169564,-0.00306243,-0.00679671,-0.00863874,-0.0165066,-0.00169688
0.0255881,-0.00838646,-0.00454556,-0.0139154,-0.0193031,0.00818133
-0.0176918,-0.0115496,-0.00182178,-0.00259781,-0.0174922,-0.00304055
-0.00141516,-0.00198166,-0.0080735,-0.00842619,-0.0103683,0.00985104
0.00398666,0.00227283,-0.00801573,-0.0115875,-0.00327098,-0.000431955
-0.0208744,0.00654656,-0.00937586,-0.0121501,-0.0140136,0.000743985
0.00188581,0.00759896,-0.0144683,-0.0126349,-0.0127929,6.1512e-05
-0.0154624,0.0108056,-0.0103832,-0.0123364,-0.0157592,0.0066067
0.017015,0.0161023,-0.0143069,-0.014043,-0.0104265,-0.000467181
0.0310708,0.0278007,-0.0152307,-0.00911081,-0.0156006,0.0149167
0.147693,0.0234519,0.00108369,-0.00941837,2.83718e-05,0.00715601
0.0232962,0.0661218,0.000702468,-0.0115755,-0.0217506,0.00685483
-0.00898216,0.0406055,-0.0124819,-0.0102539,-0.0265254,-0.0102313
-0.00591444,0.0491136,0.00360364,-0.00237811,-0.0123122,0.0102001
0.23953,0.2597,-0.0141696,-0.0552153,0.0369702,0.0196973
0.151178,0.494014,-0.274516,-0.079402,0.0576528,0.0591118
1.25541,0.47732,-0.598191,-0.0430785,-0.012469,0.0676093
1.09623,0.442247,-0.366547,0.0864822,-0.246187,-0.0658267
-0.573617,-0.232609,0.236223,0.0876203,-0.193092,-0.0765694
-0.574538,0.155851,0.493866,-0.0230975,-0.133157,0.0592085
0.0338753,0.55974,1.11388,-0.0155632,-0.0175525,0.115512
0.320034,0.635073,1.24875,0.0231683,0.141078,0.0154194
0.478064,0.544641,0.622119,-0.0643539,0.114956,-0.0817829
0.287798,0.311656,0.639465,-0.0456924,0.127451,-0.115376
0.102762,0.202172,0.558241,-0.110392,0.0925007,-0.0661899
0.0669852,0.186147,0.879065,-0.0211606,0.113132,-0.0729283
0.297711,0.0625643,0.64625,0.0731684,0.167721,-0.113006
-0.11105,-0.421244,-0.238038,0.0201941,0.0357938,-0.123061
-0.502957,-0.689081,-0.686555,0.10977,0.00529301,-0.0244436
0.47695,-0.173523,-0.75413,-0.120267,-0.0433455,0.0944035
1.07845,0.117606,-0.393194,-0.0729021,-0.134599,0.100485
0.752991,0.142226,0.0153231,-0.119032,-0.153603,-0.032555
-0.211932,0.175872,0.251691,-0.0699477,-0.0515133,-0.0934667
-0.424604,0.298425,0.309117,0.11296,0.054436,0.00701493
0.441144,0.0806495,0.267749,0.0847341,0.189699,-0.00124937
0.0600105,-0.00413511,0.0119304,-0.0111289,0.0169382,-0.0336112
0.00313466,-0.054112,-0.025067,-0.0167157,0.0209462,-0.00381088
0.0764955,-0.0126588,-0.0125037,-0.0315002,0.0268873,0.0155352
0.0600755,0.0214096,0.0033342,-0.0214785,0.0248788,0.0108517
0.00539621,0.0267854,-0.0422588,-0.022445,0.0269436,0.00377071
0.0224026,0.01825,-0.0131479,-0.0270649,0.0183012,-0.0108798
-0.0112869,-0.0221849,0.0068478,-0.0225837,0.0240217,-0.0115789
0.00730893,-0.0147351,-0.0143546,-0.0232112,0.0291153,0.0039525
-0.0134769,0.0384936,0.00355276,-0.0286585,0.0280059,0.0129882
0.0688418,0.105504,-0.0159179,-0.0330772,0.029088,-0.00335801
0.0357315,0.0331523,-0.0483445,-0.0149911,0.0118892,-0.0384413
0.00785794,-0.0381403,-0.0646482,-0.0222532,-9.25362e-05,-0.0263183
-0.00185525,-0.0370965,0.0369565,-0.0246217,0.000632256,-0.0097394
-0.0581018,-0.00299614,0.0352094,-0.0322739,0.0257979,0.0147117
0.0693069,0.0511972,0.0483806,-0.0314346,0.0281388,-0.00809824
-0.0997716,-0.0104005,-0.0123619,-0.0266908,0.0392151,-0.0181782
-0.070254,-0.0317076,-0.04092,-0.0191957,0.0228836,-0.0155717
0.00925712,-0.0126144,0.00600702,-0.0245058,0.0237055,-0.00166082
0.0352961,-0.0115701,-0.00226866,-0.0171368,0.014047,0.000706851
-0.018995,0.0161406,0.016361,-0.0278032,0.0140125,0.00601888
-0.104646,0.0140704,0.0378793,-0.0182912,0.0135074,-0.00340754
0.0961599,0.0384022,0.0669036,-0.0293889,0.0227173,-0.0210725
-0.0682271,-0.0349287,0.075819,-0.0666432,0.0304193,-0.0112609
0.0733242,-0.0136948,-0.122825,-0.00283074,0.0364208,0.00651193
0.0449628,0.0225139,-0.102837,-0.0355352,0.00128776,0.00466764
0.0442144,0.032079,-0.0321846,-0.0405189,-0.00447506,0.00359571
0.197934,0.0798467,0.0508857,-0.0102759,0.0233721,-0.0113782
0.434165,0.041362,0.00755773,-0.010933,0.0394603,-0.0438925
0.209119,-0.0542526,-0.0752007,-0.019147,0.00589833,-0.0172601
0.0656392,-0.0350099,-0.00618496,-0.0467463,-0.00055635,0.0153724
0.00371896,0.0289056,0.014474,-0.0194508,0.0200215,0.0255839
-0.0750316,0.0279028,-0.00354982,-0.0279595,0.00796676,-0.00680816
-0.0730673,0.0129961,0.0168339,-0.0197699,0.00718221,-0.0316364
-0.0847316,-0.0263749,-0.00146027,-0.0243064,0.0162901,-0.00230044
0.0608519,0.0331211,0.031183,-0.0364162,0.0291855,0.0012393
0.0141296,-0.0126021,-0.0463998,-0.0123326,0.0253255,-0.0115327
-0.012944,-0.0264197,-0.0413369,-0.0366763,-0.00707951,0.0136789
-0.00740301,0.0150635,0.045407,-0.0403075,0.0215225,0.00321317
-0.0755983,-0.0391471,-0.0463186,-0.0117493,0.0307449,-0.0107807
-0.0304995,-0.0498342,-0.0147478,-0.0380419,-0.00534451,-0.00226754
-0.00338668,-0.0126204,0.0776058,-0.0119153,0.000792265,0.0135188
0.00321161,0.0225032,0.0637233,-0.0300494,0.0231121,0.024101
0.0707848,0.0778258,0.00769355,-0.0266181,0.0310203,0.005656
0.179977,0.0841543,-0.0938696,-0.0299755,0.0231621,-0.0129467
0.173102,0.0117709,-0.0499682,-0.00443172,-0.00457647,-0.0257987
0.151145,-0.0116469,-0.0159399,-0.0265508,-0.00282025,0.00599676
-0.474548,-0.137878,0.0595408,-0.0262274,-0.0427904,-0.0265123
-0.436924,-0.071884,-0.0289654,-0.0171942,0.055939,0.0175895
0.147879,0.06284,0.0824519,-0.0401015,0.0260138,-0.00342226
0.188575,0.0532539,0.0176181,-0.0312154,0.0596098,-0.0139568
0.219801,-0.00952674,-0.170415,-0.00404894,0.012707,-0.00703555
0.107827,-0.0520376,-0.109539,-0.036957,-0.0332284,0.00492764
-0.119475,-0.0167717,0.010986,-0.0240811,-0.00102615,0.010499
0.15551,0.0330369,0.0793643,-0.0160555,0.0187102,-0.0170466
0.135081,-0.021212,-0.0300321,-0.0199355,0.0285637,-0.0112869
0.237893,0.0191656,-0.0417551,-0.0358155,0.0229365,0.00994301
0.416825,0.0956919,-0.0976196,-0.0339979,0.0280502,0.0143908
0.903142,-0.0472599,-0.26221,0.0109836,0.0757932,-0.0550188
-0.433577,-0.287814,-0.63902,-0.0386548,-0.0218161,-0.0700452
-0.442247,-0.240946,-0.745168,-0.0350471,0.123482,-0.0327758
-0.252913,-0.188846,-1.06965,-0.0492772,0.0917707,-0.00683922
0.400614,-0.0498374,-1.22298,-0.0346119,0.0404477,0.0489115
0.566908,0.212959,-1.22565,-0.0274522,-0.0311666,0.0705814
1.21433,0.328452,-0.998927,0.0226365,-0.0411177,0.087352
0.334361,0.339674,-0.715528,0.0413619,-0.140131,0.109991
-0.518968,0.711655,-0.118456,0.0110015,-0.26637,0.0459633
-0.61361,0.347569,0.281271,0.0321403,-0.0190623,-0.117404
-1.05847,0.0457324,-0.270603,0.0329661,-0.0632448,-0.155845
-0.0151738,0.141769,-0.0511666,-0.124958,0.0273317,0.0429769
0.44018,0.623626,-0.0036523,-0.0336274,0.0718569,0.0319641
0.429613,0.46186,-0.114972,0.025572,-0.0217824,-0.089511
0.172153,-0.180881,-0.147235,0.0440955,-0.0412983,-0.0415937
-0.10309,-0.156205,-0.0946957,-0.0197298,-0.048524,0.0594074
-0.111141,0.00982014,0.0388845,-0.0312809,0.00277412,0.015439
-0.0543257,-0.156267,-0.000993149,-0.0250272,0.0435798,-0.0487356
0.92491,-0.276187,-0.0465171,-0.0234493,0.0474201,-0.00273496
0.0687921,-0.22555,0.0208174,0.00692225,-0.0501038,0.041818
-0.337257,-0.186916,-0.0352155,-0.0515209,-0.0358871,0.00106996
-0.439859,-0.140022,0.05138,-0.0373096,0.0169062,-0.0186837
-0.115812,-0.231763,-0.11189,-0.030719,0.0345018,-0.00919533
-0.144772,-0.0997664,-0.0438239,-0.0566337,-0.0477175,0.0494931
-1.07976,0.135037,0.205532,-0.0443126,-0.0776479,0.065582
-0.215544,-0.062527,0.205879,-0.0221943,0.157506,-0.0453428
0.865598,-0.201654,0.0341082,-0.0191202,0.0231144,0.0184082
0.00247317,-0.172337,0.256644,-0.00193012,-0.131746,0.0764121
-0.687988,-0.352751,0.119445,0.00365317,-0.0127803,-0.0288061
0.284628,-0.59294,-0.00528006,-0.046796,0.135103,-0.0269196
-0.0379642,-0.111635,0.291468,-0.0529207,-0.121466,0.0603062
-0.908603,0.217921,0.272701,-0.0397177,0.0574448,0.00954902
-0.232427,-0.207246,0.0762777,0.00972301,0.164153,-0.112387
0.00290864,-0.0935536,0.207319,-0.0471873,-0.094629,0.0365908
-0.564145,0.0665602,0.127936,-0.0202697,0.000522256,-0.0085035
0.133189,-0.0765272,-0.154197,-0.0178094,0.077211,-0.057435
0.46908,-0.215168,-0.101001,-0.0293194,-0.028621,0.0242121
-0.132352,0.0641397,-0.00637376,-0.0161225,-0.0240056,0.0483492
-0.021899,0.0799795,0.184383,-0.025114,-0.0522614,0.00412071
-0.342416,0.085585,0.0180029,-0.0237668,0.0559803,-0.0266585
0.371652,-0.0884218,-0.103298,-0.0252968,9.34601e-05,-0.0213773
0.0234813,0.0512616,-0.0163636,-0.0296514,-0.0208701,0.0278201
0.056209,0.0523063,-0.0438361,-0.00231516,0.0122898,-0.0254446
0.275684,0.0138226,-0.0359571,-0.0219734,-0.00213039,-0.0084849
0.148938,0.0298793,-0.0159926,-0.0147156,-0.0293555,-0.00519788
0.078475,0.0118268,0.00249513,-0.0245,0.00234532,-0.00553465
0.0774378,0.000124536,-0.000710534,-0.0196387,0.00014019,0.00872201
0.0340868,0.0118638,0.00735284,-0.0284344,-0.00112832,0.0113867
-0.16499,0.00668128,0.0179461,-0.0295418,-0.0226107,0.00598067
-0.190066,-0.0113954,0.0391021,-0.0228051,0.00435609,-0.0117353
-0.10994,-0.0114587,0.0292941,-0.0246891,0.0222146,-0.00473613
-0.0880285,0.0140834,-0.000458706,-0.0224493,0.006495,0.000633895
-0.00796053,0.0140256,-0.00490512,-0.0198203,0.00533634,-0.00473559
-0.0241767,0.0214946,-0.00615989,-0.0156738,-0.00460207,2.19345e-05
-0.0252618,0.0140445,-0.00509332,-0.0221229,-0.00643837,-0.00168729
0.0158373,0.00124425,-0.00461033,-0.021835,-7.22408e-05,-0.00757807
0.0277455,0.000161431,-0.00555759,-0.0267279,-0.00295138,0.00633371
-0.0264934,-0.0146989,0.0120534,-0.013348,-0.000520706,-0.000549436
-0.0177324,-0.0125795,0.00143597,-0.0166676,0.00792301,0.00146836
-0.019907,-0.000867287,0.00140171,-0.0252529,-0.00259286,0.0113854
-0.0307178,0.00872116,0.000199024,-0.0204335,-0.00192779,0.00302094
-0.0242456,0.012973,0.00133769,-0.0246497,0.00775313,-0.00464207
0.0395264,0.0225086,0.00312499,-0.0212435,-0.01087,0.00867283
-0.0477625,0.000221618,-0.0235446,-0.0187445,-0.00143641,0.00270712
-0.0153952,-0.0210861,-0.0145813,-0.0123269,0.00166088,0.000209689
0.00512464,0.00337835,-0.0143769,-0.017528,-0.00215733,0.00295883
0.0180654,-0.0062168,-0.00994343,-0.0184265,-0.00412452,-0.00378972
0.0190773,-0.0168567,-0.00241702,-0.0181231,-0.00810993,-0.00158173
0.0310165,-0.00728032,-0.00764011,-0.0222627,0.00432467,-0.00546116
0.033246,0.00548708,-0.0151307,-0.0230721,0.0125862,0.003663
0.0537963,-0.000916124,-0.0148931,-0.0224519,-0.00359738,0.00757474
-0.000417892,-0.0285535,0.00165538,-0.0156471,-0.0168566,0.00662875
-0.0890237,-0.0412543,-0.00361093,-0.0219101,-0.00138152,0.00310683
