rotation_x,rotation_y,rotation_z,acceleration_x,acceleration_y,acceleration_z
-4.04469,1.91203,3.90709,0.652696,0.134515,0.267135
-2.00121,1.49057,4.4517,0.754782,0.449455,-0.249877
-0.12872,0.731492,2.44854,0.316299,0.688104,-0.257162
0.797738,0.283214,0.618254,0.172672,0.718355,-0.1228
-0.228651,-0.537777,-0.784207,-0.0601099,0.590718,-0.0696869
-0.290326,-0.473211,-2.37257,0.0385858,0.309635,0.12229
-0.925974,-0.0890374,-2.86465,0.282994,0.0666417,0.118806
0.97076,0.340476,-1.99062,0.152285,-0.060868,-0.137476
2.46761,0.279836,-0.591368,0.0959099,-0.270132,-0.00491905
1.98847,-0.423052,0.418945,0.20479,-0.217933,0.191708
-1.0057,-0.662192,0.424243,0.0554893,-0.443865,0.324146
-2.02679,0.0229638,0.842287,-0.0628899,-0.198466,0.134827
-1.03874,0.125333,1.77808,0.136454,0.114057,0.0111803
0.722912,0.514698,1.62616,0.052785,0.281865,-0.186492
0.995016,0.263575,0.468469,-0.00876361,0.118398,-0.105124
-0.835383,-0.327938,-0.167072,0.0907217,0.146989,-0.170208
0.284765,-0.331769,-0.651132,-0.116052,0.164639,-0.206571
0.486761,-0.251328,-0.377374,-0.105571,-0.102623,-0.0874447
-0.353083,0.178906,-0.275398,-0.0999301,-0.0208705,-0.0819402
0.678822,0.465882,-0.0404692,-0.0235927,0.0687043,-0.145422
0.653093,0.159774,-0.395443,0.14851,-0.0439787,-0.111452
0.0333701,-0.305927,-0.642625,0.0239987,-0.130869,-0.0521112
0.833261,0.0429389,-0.5468,0.0954527,0.00654706,0.032702
0.510739,0.525586,-0.179316,0.0207106,-0.291115,0.0654668
-0.0890184,0.219861,0.0469304,0.106861,0.282009,-0.157402
-0.0404167,-0.43367,-1.03206,0.00996304,0.048747,-0.0680962
-0.360468,-0.0878108,-1.30795,-0.317942,-0.0436046,0.110759
-0.851009,0.0208019,-0.495265,-0.0875845,-0.0731096,-0.00292856
-0.0279584,0.324087,-0.798657,-0.0275759,0.10827,0.0978488
0.805876,-0.222267,-0.113528,0.115495,-0.152157,-0.26539
0.256653,-0.129519,0.153062,0.17544,0.0584373,0.0760207
2.42181,-1.28249,0.264806,0.347967,-0.0706316,-0.141666
-1.84084,-0.911152,-0.585884,0.133139,0.101704,0.120499
-1.95178,0.0261425,-1.58176,-0.254352,0.0429984,0.258242
0.641369,-0.410551,-0.344777,-0.17877,-0.825857,0.0393596
-2.13929,-0.118296,0.0371746,-0.0249836,0.075978,0.147887
-1.32075,-0.0543183,-0.284983,-0.028619,0.0525179,0.120914
-1.47416,0.305734,-0.313536,-0.0942403,0.130411,-0.0650829
1.34172,0.569782,-0.202132,-0.206145,0.0412624,-0.392029
0.959056,0.144192,-0.0106225,0.0650496,0.112193,0.0111212
0.639371,-0.781253,0.245266,0.432031,0.312579,0.0320861
1.13601,-0.00544522,0.0155856,0.0354951,0.0731502,-0.199316
0.207998,-0.0640939,-0.327276,-0.118326,0.143595,0.0695363
-0.682755,-0.00850173,-0.686767,-0.132565,-0.240865,0.00869316
-0.203354,0.352287,-0.0195286,-0.0114284,-0.143497,0.0205479
-0.846302,0.320469,0.443045,0.103575,0.0855772,-0.0963418
0.499408,0.18852,0.0942132,-0.0630389,0.0824211,-0.0778741
0.0150117,0.209432,-0.373579,-0.0483928,-0.0102658,0.112651
-0.0533203,0.192042,-0.57352,0.0230052,0.0171493,-0.0529696
0.330669,-0.0108783,0.225226,0.0677591,-0.163065,-0.0248544
-0.0807643,-0.107802,0.209356,0.110485,0.0536835,-0.0428367
0.0886167,-0.0694904,0.200125,-0.00557077,-0.233798,-0.0171636
-0.520441,-0.0969903,0.093316,0.0457736,0.0819907,0.0255575
-0.874782,-0.0883502,-0.00636567,0.0267821,-0.150261,-0.0115995
-1.57058,0.411877,0.479274,-0.12151,-0.0285184,-0.0943964
0.156869,0.0212591,0.201928,0.0591926,0.312296,0.0052669
1.1256,-0.416559,0.0940701,-0.0560912,0.0587317,-0.143388
-0.0129295,-0.158467,-0.0240509,0.0120139,-0.00236547,0.0842654
0.099034,0.183557,0.137622,0.0157997,-0.0029397,-0.0602204
0.215521,0.0946122,0.0253784,-0.00272822,-0.00257361,-0.0391011
0.336589,0.0313898,-0.0357289,0.00209063,-0.00609624,-0.0592196
0.173086,0.0879786,-0.121114,-0.0361635,0.0364605,0.0151758
0.0672904,0.184403,-0.00353732,0.0405852,-0.0694702,-0.0378577
-0.137076,0.0788832,0.0412561,0.0304245,-0.0175959,-0.0356281
-0.10545,0.0125415,-0.00948024,-0.000617743,-0.0217494,-0.018816
-0.101237,-0.098552,-0.00767587,0.00636259,0.0365688,-0.0437227
-0.0391898,0.0488633,0.0204476,-0.0146723,0.00403142,-0.0225708
-0.0504177,0.0540447,-0.0757888,-0.00345874,-0.00964057,-0.00541604
0.00939538,0.0337486,-0.0497895,0.00949886,0.0228978,-0.029466
-0.0119296,0.0177399,-0.0508342,0.00945285,-0.00231004,-0.0322011
-0.107731,-0.0184727,-0.0317273,0.015246,-0.0191566,-0.0186191
-0.0757453,-0.00567559,-0.0295515,-0.00966588,0.0119398,-0.0217487
-0.00882411,-0.0367591,-0.0611536,0.0107518,-0.00745547,-0.0219009
0.00939478,-0.0570345,-0.0417225,0.00542495,0.00148618,-0.022885
-0.0555716,-0.0591133,-0.036609,0.00718886,-0.00361717,-0.0264386
0.047369,0.000810364,0.0670259,0.00787306,0.0299397,-0.00529611
0.0186509,0.0521124,0.0708601,-0.0370259,0.00821322,-0.0312912
-0.0479581,0.0939671,0.15368,0.0386392,-0.0304664,-0.00129032
0.0237372,0.093692,0.0268022,-0.0515001,0.023993,-0.000297189
0.0223889,0.0647727,-0.0178891,0.0172709,0.0115736,-0.0466001
0.0474235,0.0713159,0.069776,0.0116905,-0.00756109,-0.0134274
0.00782342,0.0403224,0.0431151,-0.00462225,-0.014879,-0.0122716
0.0183063,0.0274471,0.0154593,3.74913e-05,0.0022105,-0.0124836
0.0269902,0.0659372,0.038747,-0.00487572,-0.00325382,-0.023628
0.00749008,0.0124557,-0.010127,0.00664151,-0.0178421,-0.00521839
-0.0438082,-0.0121157,-0.0336649,0.00757813,-0.0018698,-0.00714993
-0.0438328,-0.0484359,-0.0344986,0.0122538,0.00230432,-0.0124208
-0.0277528,-0.0462838,-0.018425,0.0141478,-0.00774169,-0.0101713
0.0155782,-0.0934145,-0.0735154,-0.0082413,0.0115955,-0.0286427
0.0804706,-0.086017,-0.0914853,-0.0380655,0.0069499,-0.0169617
-0.0645661,0.00728673,0.0569485,0.0524918,0.000844896,0.000896573
0.00841552,-0.0249673,-0.0301815,-0.0500207,0.021955,0.0332108
-0.0232313,0.0125307,0.0196749,0.0144721,-0.02097,-0.0263145
-0.0147455,0.0125139,0.0132944,0.00224641,0.0055275,-0.027595
0.02644,-0.0378232,-0.0439208,0.0140984,0.0055846,-0.0120993
0.0614146,-0.0560614,-0.0735875,-0.0159824,0.00927877,-0.00782013
0.0631673,0.0274446,0.0337921,0.0200134,-0.00627595,-0.0139382
0.0620383,0.00286233,0.0253991,0.00309739,-0.00457937,0.00164855
0.031075,0.005004,0.0145832,-0.000200927,-0.00932515,0.003245
0.0162667,0.00611494,0.0326845,0.016502,-0.0145471,-0.00822639
-0.0221173,0.00720413,0.0282606,-0.00117457,-0.0120274,-0.00240874
-0.0466593,-0.0237602,0.025163,0.00897747,0.00313365,-0.0149913
-0.0488883,-0.0408758,0.0103073,0.00464675,-0.00511819,-0.0137169
-0.0414679,-0.0408927,0.0039248,-0.00202382,0.00286102,-0.0197972
-0.0372589,-0.0451843,-0.00457768,0.00128761,-0.00555009,-0.00601721
-0.0286533,-0.0227378,0.00706126,-0.00212714,-0.00610673,-0.0081085
-0.0190139,-0.0131187,0.0145152,-0.00630045,0.00637484,-0.00767076
-0.00191743,0.0189237,0.0197137,-0.00797024,-0.00249743,-0.00717473
0.0203701,0.0338347,0.00367142,-0.00173038,-0.00122821,-0.00749207
-0.00109761,0.0391449,-0.0231542,0.00623688,0.00864351,-0.00576353
0.0194085,0.0627024,0.01844,-0.000451505,-0.0146247,-0.0169654
0.0117628,0.0338168,-0.0102504,0.00685224,-0.00128931,-0.000630617
0.0171853,0.0188876,0.00696261,0.00644526,0.000602841,-0.0323753
0.00430193,-0.0217163,-0.00564439,0.00900957,-0.0153383,0.00629759
-0.0106517,-0.0558928,-0.00868431,0.00462136,-0.00351691,-0.00652158
0.00105006,-0.0430914,-0.0129958,0.00184891,-0.00675976,-0.00389957
-0.0138969,-0.0505637,-0.0172799,-0.00248143,-0.00716543,-0.0113583
-0.00744615,-0.0377356,-0.00879071,-0.00264385,-0.00482905,-0.00518215
0.00212517,-0.0366811,-0.011965,-0.00498053,0.000611067,-0.00808167
0.00542239,-0.0142251,0.00285958,2.72393e-05,0.00131321,-0.00589859
0.0256754,0.0145993,0.00167949,0.000800639,0.0041765,-0.00302243
0.0245917,0.0167313,-0.00154459,-0.00151795,0.0046978,-0.00650454
0.020433,0.044533,0.0132193,0.00408229,-0.00906432,0.00175095
-0.0147381,0.027469,0.0131967,0.00436828,-0.00658697,-0.00734079
0.00239776,0.0360257,0.0270959,0.00411794,-0.0056771,-0.00114202
-0.0147744,0.018914,0.0079099,0.000490189,0.00321573,-0.00618148
-0.0180381,-0.000327383,-0.00159454,0.00480336,-0.00593966,-0.00636649
-0.0254255,0.0018351,0.0101167,0.00114557,-0.00342107,-0.00683677
-0.0158323,0.00823623,0.0101129,0.000393569,0.0070492,-0.0065037
-0.00525183,-0.0131531,-0.00039572,0.00169867,-0.00515193,-0.00636792
0.00107082,0.0113847,-0.0144176,-0.0105197,-0.000425756,-0.00186014
0.00316281,0.0231212,-0.0219671,0.00135022,-0.00327003,-0.0111945
0.00743513,0.0177803,-0.0197787,0.00533807,0.00459033,-0.00205219
0.00321556,0.0135241,-0.0122884,0.00776297,-0.0127395,-0.000432253
0.0107792,0.0317059,0.00364856,0.00576654,-0.00979704,-0.00327349
-0.00846742,-0.000340788,-0.00476264,0.00491127,-0.0127318,0.00132918
0.0129162,0.00500471,0.0070357,0.0056572,-0.00489247,-0.00124192
0.00326192,-0.0217078,-0.00137502,0.005853,-0.00469625,-0.00500953
0.00439173,-0.0206208,0.00930465,0.00538367,0.000218511,-0.00112259
0.00326036,-0.0249125,-0.00135387,-0.000327498,0.0033555,3.38554e-05
0.00430559,-0.0142385,-0.00569362,-5.51343e-06,0.00207686,-0.003708
-0.00842808,0.00180718,0.00163342,0.000620395,-0.00854993,0.000650406
-0.00636521,0.00605795,-0.0101395,-0.000858575,-0.00380385,-0.00471377
0.00218992,0.016741,-0.00590308,0.00500947,0.00067389,-0.00249958
-0.00207273,0.015676,-0.00591204,0.00458732,-0.00724632,-0.00404871
-0.000994415,0.00286242,-0.00261957,0.00503814,-0.0093959,0.00255847
-0.00104387,-0.00676478,-0.0100356,0.00652674,-0.00178409,-0.0017128
-0.00309661,-0.0163529,0.00390907,0.00478899,-0.00188673,0.000243664
-0.011572,-0.00778707,0.0112992,0.000618339,-0.00515348,2.32458e-05
-0.00196879,-0.0195394,0.0146181,0.00414926,-0.00556874,-0.00257254
0.00548987,-0.00672825,0.0134938,-0.00378191,-0.00269818,-0.004035
-0.0309038,-0.0313145,-0.0121254,0.00584987,-0.00166792,0.00236559
-0.0361794,-0.0291585,-0.00361308,-6.78301e-05,-0.00327474,-0.0108647
-0.0297597,-0.0270189,0.00066983,0.00158292,-0.00589466,-0.00139737
-0.0297162,-0.0173958,0.00702217,-0.00112602,-0.010171,-0.00753593
-0.00734719,-0.00566493,0.00489031,0.00176346,0.000145793,-0.00460529
-0.000975798,0.00179995,0.000592446,0.001118,0.00404716,-0.000753522
0.0215143,0.0253132,0.0176195,-0.000918239,0.000635266,-0.00346458
-0.00102631,0.00285279,-0.00796121,0.00784338,-0.0131217,0.00675535
-0.0106627,-0.0131728,-0.0143069,0.00437617,0.00894886,0.0018214
0.00858574,0.00926084,-0.00476247,-0.00103894,-0.00580835,0.000822902
-0.00954908,0.00606438,-0.00801527,0.00541681,-0.00325692,0.0001297
0.0225117,0.0167481,0.00699453,0.0055905,-0.00154161,0.000155449
0.0268046,0.0146187,0.0123649,-0.000208795,-0.00418663,-0.00161886
0.00865706,-0.00139846,0.00812773,0.0117065,-0.0109119,-0.00404513
-0.00314355,-0.00782183,-0.00469486,0.00155249,-0.00779426,-0.000104189
0.0128392,-0.00783261,-0.00463751,0.00690478,-0.00819945,-0.00196707
4.99268e-05,-0.0142338,-0.00464038,0.00189096,-0.00926477,-0.00273943
-0.00316085,-0.0163697,-0.00677934,0.00314179,-0.00364888,0.000661254
-0.00527638,-0.0110239,-0.00468398,0.00155464,-0.00678277,-0.000889063
0.0245926,-0.00676429,0.000742667,0.00258681,-0.000139117,-0.00295281
-0.00641538,-0.017453,-0.0163991,0.00324655,-0.00838619,-0.00861967
-0.00325338,-0.00998933,-0.0228461,0.00503194,-0.00534105,0.000989556
0.00961502,0.000705347,-0.0100458,0.00425529,-0.00495338,-0.00059402
-0.00106268,-0.00570129,-0.0132498,0.00621536,-0.00539923,0.00222087
-0.00847347,0.000726563,-0.00584021,0.00468007,-0.00646609,0.000617504
0.00317008,0.012444,-0.0197631,-0.00902992,-0.0029161,-0.00428438
0.00866335,0.0370534,0.0057403,0.00883275,-0.0133406,0.000749588
-0.00958586,0.00925796,-0.0144472,0.00406602,0.000346303,0.00198436
0.00534594,0.0124551,-0.0122752,0.00446683,-0.00410664,-0.00410199
0.00331173,0.027438,0.00257736,0.00683266,-0.0140679,0.0122947
0.00970443,0.0135483,0.00376028,-0.000588477,-0.0167077,0.00580466
-0.0170169,0.000727451,-0.00907774,0.00778133,-0.00609326,0.00540364
-0.00212834,-0.00569982,-0.0132552,0.00466326,-0.00634509,0.00578022
-0.00753046,-0.0142624,-0.0249718,0.00717625,-0.0100274,0.00140393
0.0125661,-0.0303419,-0.0482973,0.00217068,-0.00460756,0.00718343
-0.00557885,-0.0538341,-0.0514185,0.00118056,0.00421953,-0.00709939
0.0200108,-0.0324866,-0.0503946,-0.00815412,0.00786775,-0.00880873
0.0223028,-0.00467308,-0.0259903,-0.00993606,-0.00465262,-0.0140226
0.0212036,-0.00788557,-0.0313172,-0.00448906,-0.00617731,-0.0101737
0.0136285,-0.0239359,-0.0494022,-0.00498325,-0.0060277,-0.00483274
0.00849552,-0.0174653,-0.0174133,0.00869602,-0.0115368,-0.0120416
0.0106475,-0.00144121,-0.0153701,-0.00277433,-0.0103381,0.00327003
0.00745139,-0.000370171,-0.01539,-0.00560549,-0.00209892,-0.00564933
0.000966021,-0.0185487,-0.0291867,-0.000666142,0.00180966,-0.00670969
0.00528628,-0.0174673,-0.0195606,0.000744373,-0.004246,-0.00243294
0.0074136,-0.0249462,-0.0195043,-0.0036214,0.0027827,-0.00496209
0.0136226,-0.0485021,-0.0481753,-0.00864089,0.0043875,-0.0109211
0.0314867,-0.0624724,-0.0886203,-0.0212573,-0.00919175,-0.00641108
0.0517984,-0.0571282,-0.0778939,0.0196827,0.0513129,0.00655842
0.0376956,-0.0475784,-0.120747,0.0164859,-0.000736833,0.00254357
0.0427649,-0.0914472,-0.159977,0.0018059,-0.00210077,0.00799918
0.0792256,-0.0476164,-0.124867,0.00797412,-0.00842869,0.00559366
0.0423885,-0.00366583,-0.0526346,0.0169781,-0.00397098,0.0118744
-0.0135291,0.00828692,0.0389652,0.032248,-0.0344296,0.0246705
-0.0454986,0.000832956,0.038895,-0.00158656,-0.00502312,0.00397348
-0.0514599,0.0468897,0.106954,0.0303203,-0.0113382,0.00171292
-0.0673054,0.0277169,0.131594,0.00897777,-0.0200955,0.00642169
-0.095177,0.0373011,0.102579,-0.0142649,-0.0112596,-0.00812507
-0.134429,0.0501981,0.130127,0.0104904,-0.00930899,0.00103951
-0.0893737,0.0812255,0.178176,0.0100996,-0.0110186,0.0128114
-0.0248444,0.0265698,0.10505,-0.00537583,0.00843084,-0.0207746
0.0450218,0.0424048,0.02721,-0.0107827,0.0444561,-0.0079093
0.0219446,0.10661,0.0822679,0.00884572,-0.00856793,-0.00243402
-0.014487,0.0318159,0.0548357,0.0144247,-0.00947267,0.00112367
0.00980826,0.0167829,0.0208345,-0.00531775,-0.00401103,-0.0070616
0.0512682,-0.0345426,0.00957063,-0.00267783,-0.0198944,-0.00878572
0.0188527,-0.0901878,-0.0607074,-0.00392586,0.0173649,-0.00869226
0.0041252,-0.0292416,-0.0344493,-0.0138503,0.00300848,0.00711954
0.00751101,0.00391956,-0.00580192,-0.0145418,0.0102994,-0.00275588
0.0193437,0.0359848,0.0100606,0.00477761,-0.0077486,-0.00188136
0.028911,0.029563,0.00693246,0.0136941,-0.00554878,-0.00234044
0.00512467,-0.0335338,-0.0451023,-0.00626969,-0.0170991,0.00158131
0.0213404,0.0103118,-0.0100673,0.0121459,-0.0040378,0.00129461
-0.00855414,-0.0195883,-0.0174645,0.00678644,-0.0052954,0.00666547
-0.00426414,-0.0153123,-0.0132003,0.00560513,-0.0079807,0.012442
-0.0073335,-0.00352393,0.00701148,0.0096302,-0.00793982,0.00779748
-0.0188987,0.0136181,0.0314329,0.00654048,-0.00575757,0.00388229
-0.024179,0.0189767,0.0388563,0.0112055,-0.00406492,-0.000486612
-0.0124475,0.0275151,0.0399138,0.00645176,-0.00695014,0.000200748
-0.0178827,0.0168071,0.0228682,0.00755161,-0.00536412,-0.000304818
-0.0136879,0.010377,0.0122392,0.00392205,-0.00524521,-0.00334001
-0.00632716,0.00607073,-0.0037322,0.00756979,-0.00309664,-0.00311291
0.00530693,0.0113764,-0.0186805,-0.0023424,-0.000452876,-0.00438416
0.00636769,0.00176178,-0.018614,0.00668973,-0.0122644,0.00866365
-0.0117221,-0.0131684,-0.0132461,-0.00179511,-0.0107694,0.00339639
-0.0116393,-0.0142141,0.000654555,0.00916025,-0.00996351,0.00449073
0.01069,-0.00569996,-0.0078653,-0.0005683,-0.00520682,0.00157809
0.0203453,0.0103325,0.00168312,-0.000951529,-0.00558543,-0.00524926
0.0225834,0.0327907,0.017573,0.00242621,-0.00162506,0.000458479
0.0214801,0.0210321,0.0123029,-0.00116828,-0.0023669,0.00386608
0.0107607,0.0210222,0.0015765,0.00139323,-0.00515598,-0.000799775
0.0438056,-0.0035645,0.00613553,0.0205073,-0.000434399,0.0112239
-0.150663,-0.384865,-0.0508879,0.0747854,-0.0916269,0.0094924
-0.322889,-0.791857,-0.127957,0.0846065,-0.00447834,0.0351627
-0.311226,-0.76625,-0.139833,-0.016636,-0.0368314,0.0604085
-0.405952,-0.886837,-0.111625,0.0261323,-0.00533926,0.0443944
-0.360223,-1.05244,-0.111449,0.0308033,-0.00884175,0.0586812
-0.293216,-1.11554,-0.125748,-0.0203428,0.0500171,0.0400918
-0.133766,-1.27598,-0.174327,0.0785126,-0.0510433,-0.00425398
-0.326995,-1.14929,0.108335,-0.0283102,-0.0146834,-0.0079751
-0.278851,-1.02355,-0.0482924,-0.087387,0.0143259,-0.0229321
-0.306897,-0.696812,-0.134923,-0.0796691,0.022631,-0.0387141
-0.229346,-0.179695,-0.0418261,-0.140173,0.0371206,0.0488784
0.479331,0.0697228,-0.045063,-0.00358677,0.0989439,-0.067921
0.0900069,-0.195734,0.0876874,0.0759824,-0.0886393,-0.00810337
-0.322358,-0.384468,0.102325,-0.0102879,-0.0938594,-0.0218712
-0.157888,0.040598,0.127965,-0.118093,0.00687486,-0.0419383
0.0234769,0.520833,-0.0550376,-0.194085,0.126417,-0.0279834
0.314538,1.044,-0.0722985,-0.100545,0.0703319,-0.0418227
0.490022,1.3677,0.02242,-0.0678539,0.0113302,0.0537109
0.456453,1.54304,0.0948809,-0.0281795,-0.0100026,0.0845635
0.495281,1.57199,0.170698,0.0472611,-0.0108435,0.11047
0.375519,1.31456,0.122771,0.0280517,-0.0486177,0.0698199
0.337836,1.13611,0.0735681,0.0573784,-0.0214818,0.0696943
0.421846,0.930934,0.0645263,0.0835927,-0.000593781,0.00857067
0.232858,0.650066,0.0239733,0.0379132,-0.0233092,0.0711663
0.233854,0.510133,0.0248829,0.0553559,0.00369364,0.026212
0.026052,0.360756,0.0336212,0.0179875,-0.0453489,0.0501714
-0.0340273,0.180183,-0.0188556,0.0896948,-0.0621204,-0.000664949
0.0153664,0.10763,0.0512496,0.0248544,-0.0490438,0.0130718
-0.0724114,-0.0366074,-0.00370319,-0.00035581,0.00368267,0.0116206
-0.149764,-0.156356,-0.0993748,-0.00578478,-0.00751352,0.0430584
-0.297851,-0.150898,-0.096761,-0.0441432,-0.00312972,0.0270855
-0.146433,-0.0556115,0.0923039,-0.00424656,-0.0447961,-0.0109489
-0.0119198,-0.0673855,0.13669,0.00783467,0.00441873,0.0162277
0.147152,-0.0524619,0.187405,0.0131013,0.0237601,0.0179849
0.0159047,-0.0171725,0.152493,-0.0467577,0.000283241,0.00127983
-0.0848612,0.138659,0.0367826,-0.0493253,-0.0132883,0.0050503
0.169731,0.392953,0.181396,-0.0115235,0.00666904,-0.0186865
0.244448,0.448472,0.198412,-0.0270555,-0.030105,-0.00903702
0.119426,0.505067,0.133471,-0.0540023,0.0107796,0.0201975
0.33966,0.761447,0.234135,-0.0238049,0.0186262,-0.0134668
0.349481,0.711309,0.277234,0.0255555,-0.0188478,0.0231752
0.259676,0.570308,0.239347,0.0504441,-0.0463045,0.022418
0.106569,0.38864,0.132042,0.0219182,-0.00172645,0.0202837
-0.0218275,0.397125,0.0417547,-0.0445055,-0.0188888,-0.0556762
0.400142,0.697557,0.375811,-0.0523732,0.0342574,0.00444984
0.7956,0.991014,0.375387,-0.0264962,-0.0177704,-0.00179994
0.595653,0.733253,0.103855,-0.0260056,-0.0208077,0.120139
0.381786,0.552692,-0.00796119,0.0761972,-0.0581429,-0.00955498
0.315497,0.380722,-0.0306009,0.0293211,-0.0253152,0.0175242
0.138566,0.198204,-0.0236679,0.0480972,-0.0261716,0.0139369
-0.0238425,-0.0848373,-0.0737233,0.0449645,-0.035741,0.0317647
-0.161706,-0.330502,-0.120729,0.0319985,-0.0331073,0.0337734
-0.339265,-0.631755,-0.208121,0.0312057,0.00980675,0.0139933
-0.326843,-0.520483,-0.100884,-0.07362,0.00364715,-0.0074929
-0.102049,-0.128379,0.0373825,-0.0995296,0.0583492,0.0310851
-0.0614481,-0.0984723,0.0533678,-0.0488916,0.0164128,0.00637972
0.00926752,-0.298446,-0.0412318,0.0540352,0.00975734,0.0491731
-0.333007,-0.777807,-0.0394067,0.0550913,-0.130309,-0.0549574
-0.408297,-1.05885,-0.131887,0.0457921,-0.0257201,0.0736511
-0.62055,-1.22857,-0.152952,0.0195408,-0.0404056,0.0530531
-0.70272,-1.29797,-0.167769,0.0259862,-0.0391222,0.0372803
-0.642641,-1.20711,-0.107232,-0.00786993,-0.0076592,0.0303956
-0.335953,-0.915509,0.0148976,-0.0371934,-0.00460231,-0.00790524
-0.342313,-0.89765,-0.159397,-0.0312637,0.0444353,-0.0400531
-0.377239,-0.628408,-0.14418,-0.0870526,0.0310844,-0.0069623
-0.0198559,-0.18852,-0.110433,-0.0683624,0.0751028,-0.0424628
0.0918691,0.0505923,-0.15751,-0.0701803,0.0405018,-0.0385587
0.266718,0.305752,-0.162784,-0.0341237,0.0341129,-0.0447912
0.330817,0.550333,-0.15665,-0.0235421,-0.0179485,0.0233418
0.286235,0.66256,-0.138311,0.0207464,-0.0418588,0.0429931
0.262016,0.4843,-0.0742077,0.122968,-0.0108275,0.0465164
0.0421738,0.193859,-0.106271,0.0715677,-0.0359934,0.0338491
-0.141323,0.238033,0.0295156,0.0245432,-0.102287,0.0438361
-0.216995,0.299272,0.198721,0.0128209,-0.0848548,0.0487199
-0.250612,0.201936,0.109474,0.0201694,-0.070735,0.00983226
-0.282525,0.131172,-0.0536577,-0.0373647,0.0378426,0.080392
-0.241878,0.0735136,-0.0221463,0.0160469,-0.0401441,-0.0796667
-0.250611,-0.049365,-0.0459571,0.000318497,0.0282077,-0.0306745
-0.10247,-0.0238337,-0.0423629,-0.0176841,0.0247377,-0.0268312
0.0204726,-0.0291478,0.0265137,-0.000273645,0.0367606,-0.023188
0.115127,-0.0655834,0.000391834,-0.0104093,0.0147478,-0.00328231
0.119527,-0.196159,-0.142985,-0.0233023,0.0199525,-0.00721121
0.244199,-0.0947862,-0.150657,-0.038422,0.0378934,-0.00903797
0.320576,-0.0155979,-0.0365585,0.0164433,-0.0398663,0.0342864
0.281255,0.0389317,-0.0242375,-0.00425032,0.00808012,0.0143294
0.110465,-0.0336557,-0.0692816,0.0116585,-0.0380611,0.0673318
0.110579,0.00269029,-0.0534889,0.0161158,-0.00910807,0.0344057
-0.00670164,-0.00151458,-0.0656548,0.0512688,0.0299913,0.0766656
-0.0799431,-0.00351363,-0.0189047,0.028229,-0.0580475,0.0412645
-0.250193,-0.0823515,0.0269113,0.0338137,-0.097307,0.0407779
-0.353984,-0.223382,-0.0334634,0.0125525,0.0399667,0.0366638
-0.441808,-0.15585,0.0629993,-0.0729255,-0.0483543,0.0138472
-0.0427371,0.099276,0.135493,0.00552839,0.123479,-0.0399251
0.0117002,0.0725623,0.154034,0.034972,0.000141382,0.0298295
0.0588439,-0.0174244,0.0276495,-0.0441848,0.00495893,0.00112498
-0.00289585,0.00293361,0.0358317,0.0256734,-0.015407,-0.00442958
-0.0124737,-0.0248257,0.0402516,-0.00736353,-0.00456572,-0.00761259
0.0207397,0.045694,0.0644913,0.00610134,-0.00474381,-0.00470328
0.0163217,0.0274944,0.0400197,-0.00986865,-0.0105138,-0.0105705
0.00903703,0.120471,0.0607576,0.00107715,-0.0029608,0.000449419
0.0416877,0.100042,-0.000957152,0.000590265,0.0120487,-0.00674951
0.0219654,-0.0528319,-0.0780359,0.0266909,0.00144941,-0.00314355
0.0521328,-0.0143085,-0.0258176,0.0149551,-0.000307858,-0.00603974
0.0533281,-0.00999816,-0.00447443,0.0153969,-0.00158751,-0.00381756
0.0511789,-0.0206821,-0.00655029,0.00745049,-0.0163468,0.00884795
0.0427553,0.00178215,0.00823136,0.00487208,-0.00118697,-0.00302565
0.00763859,-0.0216747,0.0178674,0.0115699,-0.00995588,0.0117691
0.0151597,0.0135828,0.0251469,-0.00079596,-0.00592834,-0.00485182
-0.00418546,0.00180013,-0.00155969,0.0092023,-0.00961053,-0.00155652
-0.00731931,0.0125019,0.00797389,0.00595579,-0.0133263,0.00415683
-0.013687,0.0125143,0.0122234,-0.000816286,-0.0107247,0.00206065
-0.0083359,0.0210616,0.0153931,0.00189924,-0.00201893,0.00386226
-0.0106384,-0.0153005,-0.0100218,0.0066621,-0.0114774,0.00942922
0.010725,-0.0120972,-0.00141451,0.00589445,0.0039463,0.00104761
0.00654117,0.00394934,0.0102188,0.00625947,-0.0105621,0.01156
-0.0085404,-0.00463118,-0.0164942,0.00971949,-0.00387108,0.0099082
-0.0064535,-0.0163943,-0.0228203,0.00951958,-0.00548035,0.00722528
-0.00957646,-0.00996297,-0.0111193,0.0038859,-0.00294042,0.00178576
-2.41171e-05,-0.0206606,-0.0163581,0.0085333,-0.0121481,0.00414896
0.0169609,-0.058073,-0.0235316,0.0125244,-0.00426215,-0.00355196
-0.0011264,-0.0687323,-0.0181874,-0.00235716,-0.0129173,-0.000475049
-0.035193,-0.0719021,-0.0129519,0.0104846,-0.026113,0.00657058
0.0150307,-0.0398565,0.00839726,-0.00604835,0.0171386,-0.000998974
0.0362887,-0.0174593,-0.00235238,-0.0102156,0.0324759,-0.00206947
0.0543887,0.00602062,-0.00671207,-0.00542241,-0.0126334,0.00390744
0.0524366,0.0445237,0.0197424,0.00201073,-0.00138044,0.000201106
0.0162706,0.0531119,0.02917,0.00872752,-0.00945556,0.00908375
-0.0587826,-0.0227987,-0.0422051,-0.00448877,-0.010116,-0.00778925
0.0639228,0.0220167,-0.0174625,3.95477e-05,0.00567418,-0.0253054
0.0984702,0.0797973,0.0528084,0.00496018,-0.0112302,-0.00608003
0.0181457,0.0017715,-0.00895759,-0.00129458,-0.0122058,0.00996935
0.0234859,-0.0249311,-0.00448801,0.000778854,0.00180608,-0.00475705
0.0542833,-0.0388678,-0.0203112,-0.00221238,0.00539964,-0.0061543
0.0360537,-0.0527727,-0.0384522,-0.00278053,-0.010184,-0.00695288
0.0124726,-0.101926,-0.0574529,0.0038521,0.00902498,0.00882089
-0.00466082,-0.0923245,-0.0725401,0.00163421,-0.000355899,0.000448465
0.0187207,-0.0720672,-0.0843361,0.00275874,-0.0152678,0.00428426
-0.0229601,-0.105182,-0.10244,0.0146266,-0.00647902,0.00863743
-0.0107168,-0.0441598,-0.0205208,0.0287332,-0.0307674,0.0246094
-0.0405757,-0.092206,-0.0203212,0.0126132,-0.00351095,0.0158811
-0.0105618,-0.0280942,0.00395033,0.00825593,0.00841939,0.00218892
0.0279769,0.0242627,0.0293992,0.0249352,-0.00082767,0.00558972
0.0310143,-0.0131675,0.00614734,0.0105529,-0.0458806,-0.000994205
-0.0290081,-0.0666271,-0.0482225,0.020754,-0.00877666,-0.00154626
0.0275725,-0.0175081,-0.0344397,0.0119616,0.00534713,0.00453544
0.0618118,0.0113445,-0.0131289,0.0291954,0.0250928,0.00670028
0.0385603,0.0338461,0.0165553,-0.00200298,-0.0553917,0.00380588
0.000382206,0.0125675,0.0486025,0.00678718,-0.0824922,0.0070802
-0.0881234,-0.0311752,0.0410756,0.0436717,0.0319409,0.0212423
-0.0580579,0.0212034,0.0750393,0.0169668,-0.0499897,0.00939357
-0.137155,-0.0781371,0.042265,0.0406632,0.0516986,0.0117964
-0.124262,-0.0439392,0.0570515,-0.0232379,-0.0461597,-0.00591326
-0.133753,-0.0513788,0.0741579,-0.00742421,0.0444402,-0.00296676
-0.0598072,0.0950117,0.132249,-0.0422091,-2.34246e-05,-0.0110136
-0.0183866,0.118437,0.10768,-0.0280866,0.0187757,-0.0271963
-0.0552941,0.162367,0.168158,-0.00131598,0.00662088,0.0281523
0.151076,0.193085,0.108899,-0.0138324,0.0576566,-0.0704269
0.164356,0.122418,0.0196557,-0.00581303,-0.0401939,0.000358343
0.0973613,0.00898325,-0.126236,-0.0024485,0.00579584,0.00318336
0.120427,-0.0659066,-0.182292,0.00453892,0.0269027,-0.0119141
0.147856,0.058197,-0.0611918,0.0244373,-0.0178139,0.0118408
0.156574,0.0507708,-0.0279886,-0.0158194,0.0138568,0.00596762
0.018412,0.0744759,0.0290358,0.0211311,-0.0800774,0.0354065
0.0735822,-0.00467047,-0.00336478,0.0197795,-0.00237989,0.00370121
0.124802,0.0668719,0.00277257,-0.0229147,-0.00763798,0.00965071
-0.0370493,0.00507906,0.0260733,0.0482532,-0.0530501,0.00438106
-0.0456971,-0.0504888,0.0103749,0.00524104,-0.00245273,0.0121191
0.00610922,-0.0805518,-0.0544101,0.00599885,0.0172572,0.00113487
-0.020739,-0.104089,-0.0874808,0.00126421,-0.0187526,-0.00523591
-0.0581466,-0.127591,-0.104564,0.000916094,-0.0202231,-0.00663805
-0.072616,-0.0751163,-0.0344395,0.0142255,-0.00383562,-0.000685453
-0.0285938,-0.00455999,0.0154835,0.00383812,0.0150609,-0.00119257
-0.00307899,0.0199683,0.00366804,-0.00550902,0.00300062,0.00228035
-0.0020449,0.033843,-0.00282894,0.000654906,-0.00573456,0.00279796
0.0384447,0.0840103,-0.00727641,-0.0107599,0.0065285,0.00393724
0.00123477,0.0723143,0.00761819,0.0103147,-0.0154302,0.00437737
-0.0178234,0.0595482,0.0289974,-0.000694215,-0.00763547,0.00993931
-0.0126716,0.0530846,0.000210625,0.0100422,-0.0111018,0.00271606
-0.0572133,0.0392945,0.0364617,0.0106665,-0.00579983,-0.00889015
0.051466,0.106498,0.0300223,-0.0263773,0.00907004,0.0139806
0.0703803,0.0871816,-0.0125196,0.00501281,-0.00436938,0.00186384
-0.0201633,-0.0131379,0.000612058,0.0411225,-0.0121045,-0.012774
-0.0817058,-0.0461249,0.0465379,0.00544083,-0.0157296,0.00436437
-0.0648675,-0.0579484,0.0124892,-0.00652719,0.0253687,-0.0147914
-0.0532283,-0.0547765,-0.00137846,-0.00296533,-0.00196385,0.00336909
-0.0341216,-0.0473362,-0.0141759,-0.000561804,-0.0171953,-0.00115979
0.00222412,-0.0291723,0.00400605,-0.000144869,0.00501448,0.00441384
0.0257521,0.0285093,0.0133362,-0.00725666,0.00243604,0.00965142
0.0277728,0.0252719,-0.00479975,0.00567287,-0.00470519,-0.00346208
0.0290754,0.0520407,0.0324281,0.0117189,-0.0114664,0.00862551
0.0246949,0.0456019,0.0132199,0.00649348,0.0106808,0.00101864
0.0311995,0.0253366,0.0336768,0.010055,-0.0199733,0.00746322
-0.0124563,-0.0152076,0.0423248,0.0174509,-0.00384474,-0.00560236
-0.00838112,-0.0441023,0.0136792,0.00434202,-0.00820029,0.0034833
-0.0436343,-0.0846872,0.00205618,0.00589815,-0.0153825,0.00365257
-0.130867,-0.0845815,0.0252364,0.00120187,-0.0238383,0.00753641
-0.0399844,-0.0343598,0.0733299,0.0110405,0.0177677,-0.0121452
-0.0626621,-0.0750158,0.0264957,-0.00862622,-0.00143927,0.00923014
-0.0522165,-0.0601331,-0.00988762,-0.0106881,-0.0151882,-0.000198126
0.00335445,0.0114322,0.0112241,-0.0214071,0.0161558,-0.000280738
0.00659207,0.0680478,0.0130062,-0.00924808,-0.00438559,0.00942075
0.0512594,0.0380832,0.00161714,-0.000561118,0.0118986,-0.0175626
0.104587,0.063691,0.00806155,-0.0145012,0.0212515,-0.0219975
0.148887,0.0143957,-0.0630391,-0.00916824,0.000584602,-0.0185636
0.118622,-0.0519251,-0.128967,-0.00032115,-0.032217,0.00463748
0.0134102,0.0262006,-0.090334,0.0243855,-0.0464196,-0.00076735
-0.0250868,-0.0197365,-0.109412,0.0153316,-0.0131128,0.0218585
-0.06764,0.0144935,-0.101248,0.0186278,-0.0120923,-0.00424623
-0.0740577,-0.0218223,-0.102105,0.0323789,-0.00178409,0.0236317
-0.0480568,-0.00889952,-0.0315748,0.0244297,-0.0137514,0.00491714
-0.0306786,-0.00133996,0.0229323,0.0324627,-0.0218425,0.0225295
-0.0656819,0.0104811,0.0483676,0.025233,-0.00220275,0.0177491
-0.0528761,0.0617421,0.0470167,-0.000364184,-0.0138276,0.0262558
-0.0953212,0.0949355,0.073352,0.00182956,-0.0339661,0.0253481
-0.0847926,0.122659,0.049707,-0.0130371,0.00647175,0.0118997
-0.0243108,0.113995,0.00832026,-0.012003,-0.0063777,0.00159478
-0.0839273,0.0798782,0.020071,0.00293395,-0.0167514,-0.00790465
-0.141728,0.075884,0.154506,0.0447055,-0.0311837,0.0194508
-0.0175592,-0.0130015,0.0796861,-0.0398752,0.0423275,-0.0427034
0.0290076,-0.0195363,0.0275471,0.00874725,0.00992531,-0.0214972
0.0513875,-0.0120763,0.0275836,-0.0208191,-0.0101918,-0.00291181
0.0245427,-0.0292055,-0.00552716,-0.00494766,-0.0101695,0.0126436
0.0353838,0.0231751,0.0208842,0.00266555,0.000798464,-0.0132034
0.0231374,-0.0955226,-0.0563871,0.0054175,0.000131845,-0.00597215
0.0167905,-0.105116,-0.0478018,-0.000265568,-0.0067147,0.00476694
0.0286167,-0.073053,-0.0330074,0.00504601,0.00420451,-0.00957298
0.0359039,-0.0966052,-0.0595392,-0.00511751,-0.00414872,-0.0124296
0.0634928,-0.083844,-0.0798171,-0.00676441,-0.00225025,-0.01199
0.0678843,-0.054972,-0.0607566,-0.0052321,-0.00137293,-0.0103456
0.046661,-0.0335696,-0.0481539,0.0221733,-0.0200729,-0.00603914
0.0626765,-0.0196879,-0.0439096,-0.00348613,-0.0142911,-0.000464678
0.0817707,0.0272672,-0.0623076,-0.00251874,-0.00682628,0.00941253
0.0551389,0.0657382,-0.0647932,0.00878632,-0.0131356,0.00993419
0.031847,0.0839554,-0.041491,0.0261894,0.00835121,0.0217407
0.0404543,0.0967902,-0.0287217,0.0224884,-0.00566876,0.0184773
0.0033344,0.0349222,0.0057316,0.0303805,-0.0296354,0.0106351
-0.0596959,-0.0120726,-0.0177047,0.0289482,-0.0602275,0.00151038
-0.0731293,0.148267,0.0378308,-0.0391499,0.0140612,0.01472
0.139025,0.347107,0.217905,0.00631708,0.027631,-0.0331326
0.211052,0.409943,0.140838,-0.0331416,0.00837296,0.0201323
0.135316,0.382205,0.128981,0.012688,-0.0220417,0.0103389
0.0256091,0.276564,0.145283,0.0506406,-0.0516492,0.0201888
-0.121667,0.156987,0.116657,0.0225929,-0.0311494,0.019233
-0.161712,-0.0621124,0.0324527,0.0308366,-0.0204345,-0.0198587
-0.206793,-0.222381,-0.00834602,0.0131626,-0.00348282,-0.0103009
-0.183338,-0.258707,-0.00268126,0.00338244,0.00916916,0.00128603
-0.120149,-0.377525,-0.115997,-0.0213697,0.0486243,-0.0269411
0.0226648,-0.338104,-0.113583,-0.00841662,0.0262833,-0.0121237
0.0145325,-0.256813,-0.0553754,0.0150069,-0.0144956,-0.0078007
-0.0326385,-0.231228,-0.105935,-0.0102665,-0.0287619,0.0102267
-0.0636602,-0.205608,-0.128653,0.00248703,-0.00437677,-0.00381625
-0.00658444,-0.0228413,-0.0441469,0.0104552,-0.00688601,-0.00971246
0.00872852,0.0659113,0.0140971,0.0170031,-0.00125277,0.011636
-0.0212645,0.0690916,-0.0127469,-0.00188008,-0.0300795,0.0194023
-0.0510098,0.0819562,0.000948892,-0.0165355,-0.00681663,-0.017555
-0.0639626,0.142039,0.14582,0.0379177,-0.0156535,0.0290688
0.0334454,0.162389,0.218707,-0.03975,0.0371038,-0.0713644
0.109513,0.228361,0.104238,-0.0113108,0.00577849,0.0142215
0.0569646,0.116156,0.0577596,-0.0155757,0.00402761,0.00992942
0.066076,0.0156146,-0.0131416,0.0328708,-0.00932324,0.0272762
-0.0121212,-0.249321,-0.0587289,0.0518658,0.00914562,-0.0202167
-0.00896982,-0.365753,-0.0558252,0.0736115,-0.041718,0.00125003
-0.13027,-0.688473,-0.177055,0.0589124,-0.00745237,-0.0344336
-0.0409508,-0.77724,-0.199653,0.0539359,0.00524449,-0.0106641
-0.176895,-1.07637,-0.277289,0.0497017,-0.0790442,0.0313959
-0.419705,-1.15946,-0.248811,0.0290997,0.00844455,0.140378
-0.546386,-1.58792,-0.369377,-0.00448215,-0.0211511,0.135655
-0.810704,-1.92524,-0.351085,-0.00389153,-0.0680878,0.136774
-0.754659,-1.86422,-0.249767,-0.0497177,-0.0376229,0.211724
-0.890794,-1.4237,-0.0693602,-0.102174,-0.0345089,0.154106
-0.646622,-1.28895,0.125138,0.0504484,-0.0236054,0.0161936
-0.587021,-1.30152,0.293187,0.0708818,0.0417789,0.0177953
-0.911933,-1.69492,-0.0163973,-0.109681,0.122254,0.0226778
-0.326315,-1.1102,-0.137661,-0.177062,0.169287,-0.165106
-0.0526363,-0.632724,-0.0286139,-0.0668648,0.0506821,-0.0286076
-0.0368866,-0.459782,-0.0830983,-0.137069,0.0436786,-0.0773079
0.188181,-0.0924746,-0.0750226,-0.0478811,-0.00484681,-0.0146438
0.0290008,0.0306585,0.0218813,-0.00609341,-0.0550393,0.013316
0.104635,0.0997076,-0.165262,-0.0882232,0.100389,-0.072294
0.351445,0.538683,-0.0913238,-0.0971318,0.0459041,-0.0106663
0.623074,1.15182,0.0189733,-0.120378,0.0306563,-0.00502098
0.779785,1.57498,0.172809,-0.0647085,0.0216859,0.0220211
0.840521,1.8067,0.152302,-0.0481734,0.016553,0.0272111
0.878078,1.78828,0.0200743,-0.0122372,0.00685805,0.0114105
0.744726,1.77338,-0.00597215,0.0131178,-0.0626805,0.0401927
0.550252,1.7096,0.0856005,0.128341,-0.0120201,0.0346857
0.999137,1.69502,0.494454,0.10839,0.0337135,0.0551419
1.89478,1.73266,0.416362,-0.134482,-0.0278676,0.205746
0.864796,1.48589,-0.0357101,0.103978,0.0585262,0.0680337
-0.773822,0.648447,-0.116551,0.214368,-0.0131938,-0.215494
-1.3389,-0.239082,-0.274244,0.0410571,-0.0424997,0.0467389
-0.472816,-0.0621821,-0.1418,-0.225889,-0.0345812,0.143984
-0.119924,0.172894,0.0503154,-0.153314,-0.0636983,0.118296
1.3193,-0.592547,-0.283372,0.211617,0.212888,-0.252961
1.92705,-1.00542,0.890463,0.00816384,0.0669184,-0.00744879
4.77987,-0.523307,1.10209,-0.547312,0.0611789,0.343332
1.6982,-1.12288,-1.01895,-0.394643,0.419357,0.0948594
2.49066,-0.60147,-1.82497,-0.0371074,0.325222,0.143909
3.05467,0.0955034,-1.29316,0.393837,0.21515,0.0177559
2.46743,-0.190016,-1.11294,0.486675,-0.0127458,0.0414087
-2.39791,-2.31665,-0.0713517,1.22801,-1.37303,0.718835
-4.48432e-07,-0.0594145,-0.187059,-0.0884011,-0.0289909,0.127082
0.027598,-0.0687659,-0.0255609,0.148766,-0.0185743,-0.0195481
0.647638,0.0752365,0.125411,-0.0778895,-0.155655,0.00671303
0.569419,-0.334024,0.623531,0.0377816,-0.0545209,-0.141368
0.282045,-0.40376,0.325877,0.000546053,-0.0522328,-0.0261627
-0.119435,-0.932696,0.0532126,-0.0582486,-0.0409513,0.0653371
0.142411,-0.649942,-0.0170892,-0.0712861,0.0739968,0.0789621
-0.260569,-0.249187,-0.0895769,-0.0916309,0.0734289,0.126478
-0.458768,-0.089904,-0.106309,-0.00960925,-0.0708439,0.0284232
-0.163008,0.0107595,0.165531,0.19217,0.0585209,0.0949571
-1.08465,0.243982,-0.0306831,-0.119842,0.0424509,0.0957952
-0.259481,0.132686,-1.01091,1.35047,-0.556542,0.585112
-0.491587,-0.762993,-0.188612,0.220592,-0.0361485,-0.135738
-0.197783,-0.314852,0.259398,-0.198743,-0.161206,0.0508302
-0.166933,-0.147209,0.23599,-0.0103155,0.0462324,-0.0115932
0.0672266,0.361994,0.148091,0.0299244,-0.0491973,0.174331
0.102493,0.174023,0.182563,0.00310256,-0.0247569,-0.023464
-1.89018,0.18478,-0.0258354,-0.0688436,-0.0139708,-0.121034
-0.571189,-0.383377,0.00735958,-0.0477336,-0.462306,0.25604
0.450245,-0.0589555,0.269782,-0.0760231,0.0690352,0.0718908
0.207815,-0.305209,-0.157975,-0.000562996,0.0950904,-0.0711445
0.686493,-0.173679,-0.481846,-0.00801617,0.100531,0.00195348
0.279067,0.264718,-0.410353,-0.0403391,0.0376647,0.0483893
0.296157,0.214076,-0.0424149,-0.0178947,0.008892,-0.000433147
0.161806,0.242986,-0.0612693,0.0103611,0.0579211,0.0247659
0.0224964,0.140639,-0.00663514,0.0198912,0.0254499,-0.0299493
-0.143567,0.101292,0.0229142,-0.00684026,0.00656471,0.0344991
-0.0850823,0.0798528,0.00510875,0.00273661,-0.016058,-0.0129362
-0.0199769,0.0403189,0.0269764,-0.0034015,-0.0207005,-0.0412738
0.0564224,-0.0100306,-0.0215574,0.00116052,-0.0184171,-0.0307437
