rotation_x,rotation_y,rotation_z,acceleration_x,acceleration_y,acceleration_z
0.258165,0.406544,-0.162935,-0.00613713,-0.100877,-0.0165496
0.108652,0.294876,-0.124902,0.00805956,0.0690907,0.0485897
0.0165066,-0.202186,-0.0547947,-0.00628245,0.0598708,0.027379
0.0392488,0.339596,-0.00689273,-0.0458522,0.0149457,-0.0464889
0.266324,0.148916,-0.0908533,-0.00366467,0.0109434,-0.0342413
0.115426,-0.0915378,-0.114813,-0.0536717,-0.00919783,0.0371012
0.0666203,0.158652,-0.125248,0.0271436,-0.0295286,0.0656011
0.0217737,0.0256109,-0.0635226,-0.0264813,-0.0240213,0.00116169
-0.0719147,0.0267517,-0.100992,-0.0190119,-0.0252244,0.0458866
-0.0458707,0.118257,-0.0151272,0.0209805,-0.0346283,0.0250732
0.027056,0.0234453,0.052173,-0.00978318,-0.0316051,-0.00126469
-0.0261812,-0.0127069,0.0794536,0.00167036,-0.0063566,-0.0175449
-0.0476612,-0.0222725,0.0663653,0.000647455,-0.0196323,-0.0189955
0.00231452,0.00750244,0.0412052,-0.000764906,-0.00627822,-0.0190625
-0.0223038,-0.0744409,0.0249442,-0.0129714,-0.00559783,-0.00989729
-0.0437607,-0.0978363,0.0108093,-0.0113463,-0.0143555,0.004403
-0.0331141,-0.0648549,0.0237384,-0.0159667,-0.0133425,-0.00197101
-0.0213348,-0.0201467,0.030266,0.00135159,-0.00342262,0.00452465
-0.0136895,-0.0520848,0.0261018,-0.0136227,-0.00749528,-0.0264896
0.000468911,-0.0425124,0.0155455,-0.00918216,-0.00764191,-0.000677943
-0.011447,-0.0190906,0.0153807,0.00402567,-0.0179421,0.00565875
-0.0286802,-0.0297214,0.00984201,-0.0141235,-0.00714076,0.00405526
0.0167959,0.0287957,-0.00147582,-0.00498369,-0.013658,-0.0236053
-0.010161,0.0320149,-0.00927434,-0.00247899,-0.0182742,-0.0154935
-0.0125358,0.00965655,0.0132052,-0.00464821,-0.0180689,0.00811023
-0.0177762,-0.020149,0.000316875,-0.00704998,-0.0138836,-0.000668824
0.00569378,0.0394392,0.0251527,-0.00605115,0.000305653,-0.000680089
0.0455723,0.0436652,0.037379,-0.00222221,-0.0279605,0.00056684
-0.0320902,0.0128591,0.0215423,-0.00419545,-0.0213221,0.00523025
-0.032206,-0.0286554,0.0365764,-0.00707215,-0.0121164,-0.00494093
-0.0309174,-0.0350366,0.0173263,-0.00924024,-0.0177215,-0.00627595
-0.0124733,-0.0414385,0.0121845,-0.0136934,-0.0128986,-0.00701356
-0.0134974,-0.0531488,0.00789772,-0.00970572,-0.00526619,0.00141835
0.00916424,-0.0425205,0.0113577,-0.00451422,-0.0147769,0.00384235
-0.0178154,-0.0488875,0.00677387,-0.0173978,-0.00654292,0.00545353
-0.0200708,-0.0116321,0.0120635,0.00617868,-0.0189936,0.00542414
-0.0036809,-0.00418767,-0.0048885,-0.0161941,-0.0032357,0.00663358
-0.016694,-0.0222738,0.000337506,-0.017209,-0.000739813,0.00952506
0.0147295,-0.0105897,-0.00681777,-0.00727999,-0.0138729,-0.00485432
0.0242999,0.00430435,0.00719799,-0.00846171,-0.0101309,0.00437462
0.0069841,0.00963643,0.00806373,-0.00665337,-0.00620174,0.0124803
-0.00922173,0.00646204,0.00682117,-0.0126066,-0.0103031,-0.00196975
-0.00915458,-0.00418374,0.00147574,-0.013231,-0.012077,0.00298703
-0.00475479,0.0213639,-0.00813458,0.00346956,-0.0123626,-0.00303584
-0.00792779,0.0171128,-0.0145871,-0.0178233,-0.01236,0.00546205
-0.0198144,0.0341462,-0.0168895,-0.00765032,-0.00315952,0.004529
0.00723,0.0202903,-0.0165666,-0.00566816,-0.00255001,-0.00617087
-0.0112251,0.0160438,-0.00927686,-0.00296313,-0.0176266,-5.85318e-05
-0.0318706,0.00541446,0.00121045,-0.00984198,-0.0121032,-0.00179869
-0.0146363,0.0160407,0.0067433,-0.00886855,-0.0116044,-0.00230992
-0.00811112,-0.0116347,0.00578055,-0.00883394,-0.00633538,-0.00194842
-0.0102637,0.0234938,0.00143658,-0.0106712,-0.0130911,0.00667435
0.000622558,0.0160395,-0.00485271,-0.00592184,-0.0163314,-0.0030461
0.0125371,0.0181574,-0.00686478,-0.00949615,-0.00847554,0.0054034
0.0340371,0.0628551,0.000839778,-0.00618404,-0.0145085,-0.00125962
0.014627,0.0224176,-0.000413967,-0.0128507,-0.0102336,0.00690824
0.014748,0.0139015,-0.0111153,-0.00186718,-0.0146024,-0.0085336
0.0320593,0.0351825,-0.0141476,-0.0109612,-0.00923157,0.00231135
0.0148656,0.0288146,-0.0239679,-0.000260383,-0.0161413,0.00212359
0.00292278,7.93887e-05,-0.0165817,0.00166267,-0.0194066,-0.000207961
0.0115209,-0.0265396,-0.00896176,-0.0114155,-0.0177182,0.00247383
0.00810753,0.00964776,0.00380768,0.00486436,-0.0112256,-0.000840485
-0.0178121,0.00115451,0.00138452,-0.0116798,-0.010809,-0.00364476
-0.00704365,8.25236e-05,0.00579241,-0.00296459,-0.0194127,0.000556588
0.0135791,6.55195e-05,-0.00147366,-0.000648469,-0.015377,-0.00269353
0.00381917,0.00539912,0.000557802,-0.0106211,-0.0162559,0.00868469
-0.0134879,0.00221455,0.00143089,-0.00810289,-0.0111686,0.0110378
-0.0102145,-0.0169449,0.000420135,-0.00370878,-0.00966203,-0.00516462
-0.0230432,-0.0509965,-0.0103999,-0.0144284,-0.00846744,0.00918186
-0.000406878,-0.00417513,-0.00804556,-0.000811189,-0.00607753,-0.0020026
0.0157922,0.00326787,-0.00679359,-0.0136258,-0.00954211,0.00183725
0.0146677,0.0139085,-0.0036098,0.00152248,-0.0121033,-0.00287348
0.000505024,0.0203009,0.00585675,-0.012202,-0.0120867,0.011788
-0.00390166,0.0234965,0.0132999,0.000653684,-0.0171012,-0.00305122
0.00703286,0.0128484,0.00272945,-0.0149639,-0.0132914,0.00317436
-0.00710171,0.00221012,0.0111432,-0.00223732,-0.00828373,0.0040338
-0.015658,0.00860847,0.00140703,-0.0101478,-0.000434399,0.00491774
-0.0145035,-0.00842367,-0.00391819,-0.00728595,-0.0155358,-0.000941694
-0.00259642,0.00114549,-0.00593772,-0.00973907,-0.0116416,0.00386393
-0.00578735,-0.0190719,-0.00916053,-0.00925648,-0.00976652,-0.00479907
0.00921097,-0.00311868,0.00277188,-0.00572228,-0.00748616,0.000548124
0.0200553,0.00858843,-0.00139344,-0.0056383,-0.0125054,0.00289881
0.0330047,0.00112433,0.00196967,-0.00439498,-0.0112987,0.00749636
0.0199886,0.0202922,0.00394272,-0.00717264,-0.0136992,0.00468886
-0.00384218,-0.00311126,0.0101186,-0.0043928,-0.0124651,0.00350684
-0.00273604,0.00434522,0.00691828,-0.00857276,-0.0135272,-0.000263214
-0.00808498,0.00328485,0.00150358,-0.0065344,-0.0154611,0.00313771
-0.0199668,0.00223098,0.000301252,-0.00717413,-0.0192046,0.0108247
-0.0210362,-0.00947765,0.000300328,-0.00590038,-0.0122368,0.00016284
-0.027502,-0.00840939,-0.00191737,-0.00664115,-0.0147284,0.00634021
-0.0373627,-0.013725,0.0108283,-0.00599337,-0.0212959,-0.0067845
-0.0328427,-0.0190441,-0.00731507,-0.00595987,-0.0113407,0.00336248
-0.0686813,0.0278108,0.00293306,0.00727993,-0.0326048,-0.0104567
0.0403817,-0.00952641,0.0213422,-0.00101581,-0.0123926,0.0010944
0.0558696,0.0607031,0.0846236,0.00519884,-0.0381726,0.0195638
0.0165503,0.0234887,0.0221095,-0.0120707,-0.0116404,-0.00739419
0.00503368,-0.0297156,-0.00901605,-0.0171791,-0.00144684,0.000767946
-0.0187731,-0.0328907,-0.00713962,-0.0109641,-0.0160661,0.00955456
-0.0165863,-0.000958854,-0.0125024,-0.00490394,-0.00917637,0.00339854
-0.0123771,0.00223206,-0.00174636,-0.00752503,-0.0119978,0.00247419
-0.0166603,0.0054288,-0.0060821,-0.0157251,-0.00617182,0.00173974
-0.0166409,0.0086215,-0.00822804,-0.00660604,-0.0196306,0.00411367
0.00713914,0.00540749,-0.00688825,-0.0100487,-0.0150691,0.00339705
0.000575935,0.00221979,0.00053909,-0.0056096,-0.00903606,0.00656027
0.000599548,-0.0116118,-0.00050984,-0.0105811,-0.00826788,-0.00103259
-0.000467598,-0.0137431,-0.00159485,-0.00337154,-0.0131733,0.0033344
-0.00378504,-0.00629472,0.0047798,-0.00937718,-0.0115384,0.00350195
0.021073,0.00221123,0.00506398,-0.00630406,-0.00911713,-0.000575125
-0.00477567,-0.00947628,-0.00378265,-0.00923455,-0.0171344,0.0073725
0.0166609,0.0234966,0.0114102,-0.00676274,-0.0167962,-0.000469148
-0.0188213,0.00330423,-0.00610095,-0.00616249,-0.00836778,0.00132817
-0.0275272,-0.0201049,0.00132447,-0.00680208,-0.0155994,0.00666475
-0.0145395,-0.00947388,-0.000686213,-0.00710836,-0.00981641,4.36902e-05
0.0264969,0.00752764,0.0029756,-0.00720805,-0.0134897,-0.000890255
0.0167812,0.00327692,0.00179862,-0.00517863,-0.00645161,0.00886983
0.0265822,0.0234942,-0.00667921,-0.00834963,-0.0212993,0.00532597
0.0374762,0.00858719,-0.012963,-0.0106784,-0.00845444,0.00605947
0.0234106,0.0298844,-0.0142177,-0.0018338,-0.0171986,0.00644994
0.0309294,0.0224323,-0.00876369,-0.00160652,-0.0107316,0.00834125
0.0135211,0.0192481,0.00174823,-0.00252706,-0.0144908,0.0048613
0.00598886,0.00435514,-0.000459489,-0.00660807,-0.0171313,0.00893533
0.00805903,0.00754327,0.00812459,-0.00881034,-0.00617194,0.00666773
-0.0189063,-0.0126639,0.00355191,-0.00666267,-0.0080415,0.00385332
-0.0112905,-0.0147983,-0.000643745,-0.00971788,-0.0137676,0.0012145
-0.0145071,0.00117921,-0.00496985,-0.00816298,-0.0188755,0.00574911
-0.0295734,-0.0254193,-0.00939592,-0.0102328,-0.0138688,-0.000499547
-0.0230891,-0.00946386,-0.010418,-0.00459158,-0.0115909,0.00180286
-0.000458295,-0.000967745,-0.00374725,-0.00941306,-0.00727993,0.00392652
0.011382,0.00647858,0.000668661,-0.00953054,-0.00791597,0.000615776
-0.0070287,-0.0094722,0.00476343,-0.00845116,-0.0139279,0.00299513
-0.000609136,-0.00841536,0.0112579,-0.00381279,-0.0115054,0.00222677
0.00919431,-0.00203543,0.00386563,-0.00677973,-0.00824153,0.00529331
-0.00476434,-0.00947663,-0.00485403,-0.0075188,-0.0215588,0.0109999
-0.00682666,-0.0105303,-0.0145042,-0.00860602,-0.0153064,0.00313777
-0.00698918,-0.0147965,0.00155347,-0.00267741,-0.0155236,-0.002446
-0.00918885,-0.0116005,0.00473989,-0.00223359,-0.0107824,-0.000939071
0.0244434,0.0192514,-0.00882423,0.0100614,-0.00511765,-0.0111798
0.0448844,0.0107145,0.00211866,-0.00811577,-0.0113457,0.00516981
-0.00818796,0.0128798,0.0100802,-0.00586647,-0.00976026,0.00710189
0.0446796,0.116089,0.0116415,-0.00378358,-0.016336,0.00520563
0.0647185,0.0309324,-0.0351541,-0.000193655,-0.0184172,-0.0131083
-0.0598635,-0.0882028,-0.00218273,0.00874811,-0.000834823,-0.0311858
0.0202691,-0.0754812,-0.014131,-0.0222618,-0.0247025,0.0186533
0.0634949,0.027737,-0.0212447,-0.000893474,-0.00657034,-0.00811344
0.0340695,-0.00950137,0.00415953,-0.0100234,-0.00119251,0.000278413
-0.00375877,-0.0137301,0.00266561,-0.0109381,-0.0230087,-0.0167325
0.01818,0.0405542,-0.0324685,-0.0176296,-0.0109192,0.0208675
-0.0709263,-0.0732955,0.0201654,0.0044018,-0.019981,9.41753e-05
0.0628019,0.149077,0.0332403,-0.00753611,-0.0389371,0.0335929
0.094393,0.0596416,0.0197662,-0.0388483,-0.00135088,-0.00406832
-0.0847872,-0.145665,0.00830323,0.00107095,-0.0532911,0.0271942
0.0102268,0.0128667,0.0070763,-0.0138209,0.00840521,0.00859857
0.0428867,0.0458544,-0.0172038,-0.012993,-0.0347873,0.00312752
-0.0460017,0.0491061,0.00319792,-0.0177125,-0.00724077,0.0184286
-0.0608124,-0.0413622,-0.0193725,-0.0114646,-0.0209177,-0.00768816
-0.0741241,-0.0637097,0.0147684,0.000256479,-0.0245652,-0.00221145
-0.00917216,-0.00627606,0.00259533,-0.0216522,-0.00471306,-0.0218571
-0.0134671,-0.0243719,0.00148955,0.00271249,-0.00742543,0.000260711
-0.0739485,-0.171223,0.0084474,-0.0111662,-0.0140256,-0.00819194
0.00259326,-0.0350273,0.0177495,-0.00569475,-0.0147905,-0.00402647
0.0566754,0.0341264,0.00972959,-0.0205311,-0.0180687,-0.00453568
-0.0446496,-0.109499,-0.00733858,-0.00966197,-0.0361838,0.00996691
-0.0154762,-0.0786486,-0.00810695,-0.0126301,-0.00118995,-0.0210699
0.0382761,-0.0701827,0.0213995,0.00526664,-0.000826776,0.00587237
0.0447559,0.0373289,0.011734,-0.00557637,-0.0167818,0.0316233
-0.0557766,-0.0307221,0.0149472,0.00650346,-0.0198735,-0.00179207
0.0427219,0.0543648,-0.00222602,-0.0141437,-0.0198954,0.00443149
-0.0523874,-0.0626628,0.004301,0.00797042,-0.0156701,-0.0142013
-0.00942448,0.0448129,0.0218141,0.00237715,-0.0143613,0.0172026
-0.0783485,-0.0413495,0.00292095,-0.0166365,-0.00570798,-0.00617558
-0.0348381,-0.135046,-0.0125491,-0.00479895,-0.00341743,-0.048085
0.0188845,0.0139355,0.00611593,-0.014538,-0.0197486,0.0158157
-0.00574861,-0.096755,-0.00584092,0.00451726,-0.00394654,-0.042675
-0.022062,-0.092483,0.00254125,-0.0225242,-0.0249403,0.0181901
0.0362595,0.0171177,-0.00118579,-0.00881672,-0.00458813,0.014696
0.0338273,0.0532997,0.0212285,-0.00909194,-0.00753886,0.0136787
-0.0126778,0.0416287,0.0228601,-0.00967896,-0.017956,-0.0096665
0.000370126,0.0235288,0.0176777,-0.012006,-0.00127143,0.000132978
0.00471782,0.0469388,0.0134131,-0.0101422,-0.0150501,-0.00653422
-0.00927808,0.020338,0.0100683,-0.0100337,-0.0202142,-0.00728244
-0.0254369,0.00438777,0.00562285,-0.0109667,-0.0109977,0.00403076
0.00606027,-0.0126682,-0.00578681,-0.0117508,-0.0102787,-0.000967681
0.00715021,-0.00947843,-0.00685225,-0.00495893,-0.0133265,0.00960994
-0.00263907,0.00118403,-0.00267595,-0.00527263,-0.0135663,0.00147587
0.013419,0.0181917,0.0113979,-0.00406641,-0.0120595,0.00926852
0.0154951,0.0373495,0.0178276,-0.0023132,-0.010935,0.0124122
0.00811318,0.00649242,0.00278832,-0.0111094,-0.00873607,0.0143483
-0.00487676,0.0554664,-0.0006218,0.00162834,-0.0170023,0.0108906
0.000521535,0.0522684,0.000512849,0.000303388,-0.0184193,-0.00208068
-0.0025677,0.0203419,-0.0112657,-0.0103372,-0.0127692,0.0135809
-0.0123869,0.00863361,-0.00173401,-0.00292066,-0.0157452,-0.00360096
-0.012246,-0.0445796,-0.0102353,-0.00845146,-0.00981772,-0.000941753
-0.0187313,-0.0349968,-0.0113921,-0.0122545,-0.00864851,-2.11e-05
-0.00691731,-0.0435289,-0.00269115,-0.0113848,-0.0124223,0.00594836
-0.00912855,-0.0286244,0.000482772,-0.00948322,-0.00904846,0.00612193
0.00385113,-0.0339538,0.00063823,-0.00704238,-0.0096913,0.000407517
0.00602686,-0.0137295,-0.00256889,-0.00771648,-0.0120342,0.00466406
-0.0176456,-0.0509633,-0.0102913,-0.00909328,-0.0120791,-0.000221193
0.00495818,-0.0275612,-0.00256026,-0.00795504,-0.0128489,-0.000202775
0.0220587,0.0267087,0.0114971,-0.0119221,-0.0100252,-0.00371844
0.00260008,0.0469414,0.00910623,-0.00592762,-0.0157934,0.00714952
-0.00275706,0.0416285,0.00477341,-0.0082742,-0.0152705,0.00583178
0.0188503,0.0586458,0.00500372,-0.00620335,-0.0217158,0.00153762
0.0730351,0.0596705,-0.00616483,-0.00510985,0.0160028,-0.0134451
0.109781,0.0532572,-0.00359918,-0.000553727,-0.0115696,0.00909549
0.0371643,0.00327492,0.0170411,-0.0151047,-0.0177334,0.0187402
0.0684859,0.0160217,0.0195209,-0.00640815,-0.00758731,-0.00272799
0.054203,0.0309265,0.039684,-0.0124913,-0.0161155,0.0310382
-0.000139035,0.0533153,0.0636743,0.00552142,-0.0145121,0.0182869
0.0482152,0.258742,-0.0302086,0.00722575,-0.0283947,-0.00684065
0.00945016,-0.0254373,-0.0185797,0.00114572,-0.0146261,0.0173113
-0.110513,-0.0796394,-0.0198891,0.00266957,-0.011054,0.00351787
-0.0173728,0.0235548,-0.0435577,-0.0148027,-0.00860631,-0.0414236
0.00138177,-0.0711852,-0.070014,-0.0151134,-0.0190589,0.000580966
-0.0509512,-0.016874,-0.0342637,0.00827998,-0.0228755,0.023612
-0.0120995,-0.0211665,-0.0263293,0.00518537,-0.0378876,-0.00323838
-0.0336996,-0.0477542,-0.0265376,-0.00946119,-0.0362795,-0.0011301
-0.0155026,-0.020096,-0.0113695,-0.00722373,-0.00362802,-0.00456864
-0.0284079,-0.0328627,-0.0168618,-0.00451949,-0.0208504,0.00367808
-0.00562408,-0.033935,-0.0240886,-0.0156953,-0.00521469,0.00410712
0.0117398,-0.0520475,-0.0281631,-0.00286177,-0.0174686,0.0144503
-0.0133167,-0.0307488,-0.0124135,-0.00345302,-0.0083794,0.0125008
-0.0145008,-0.0296813,-0.00278567,-0.00268966,-0.0174333,0.00224149
-0.0126028,-0.0115913,0.0207757,0.0037694,-0.0135422,0.00635707
-0.0331692,-0.000927736,0.0216079,-0.00579244,-0.0189138,0.00910598
-0.0613052,-0.0317839,0.0266654,0.00529885,-0.0165271,-0.00126129
-0.049343,-0.0456239,0.0214681,-0.00991362,-0.0204419,0.00558817
-0.0470519,-0.0743603,0.0118904,-0.00287434,-0.0172041,-0.0122405
-0.0339905,-0.0807625,0.00453987,-0.0150079,-0.00932729,-0.00276268
-0.0156553,-0.0467107,0.00578814,-0.00769025,-0.0142051,0.0122669
-0.0447441,-0.0850052,-0.00092391,-0.0147174,-0.00740039,-0.00995195
0.0029617,-0.069077,-0.0143275,-0.0115705,-0.00884449,-0.0092867
0.0300902,-0.0328995,-0.0269014,-0.00918674,-0.00520658,0.00154775
0.074503,0.041585,-0.0414608,-0.00974438,-0.0176642,-0.00967109
0.0777479,0.0511649,-0.0425019,-0.0109864,0.00161457,0.00863439
0.0830686,0.0809637,-0.0371187,-0.000174373,-0.0178021,0.00699061
0.045095,0.0543769,-0.0225318,-0.00817716,-0.00124872,-0.0049035
0.0126608,0.0405604,-0.0218176,-0.000340968,-0.0155334,-0.00791323
-0.0750709,0.0682995,-0.0110595,-0.0101421,-0.0199156,0.00991082
0.0873544,0.350253,0.0440422,-0.00403175,0.00240254,0.00370443
0.0598665,-0.000969978,-0.085482,-0.0475552,-0.0202661,-0.0147216
-0.0490007,-0.160554,-0.103687,0.0376735,-0.00903392,-0.00505453
-0.0343944,-0.0541302,-0.0629423,-0.0129184,-0.00744432,0.0231627
0.0386364,0.0586419,-0.0258194,0.00102508,-0.0173482,0.031454
-0.0482486,0.0416645,0.0117585,0.0135376,-0.0412636,0.0369848
-0.0821329,0.00548475,0.0499523,0.0164555,-0.0290145,-0.0141182
-0.112255,-0.0477092,0.0400331,0.00392047,-0.0291085,0.00474387
-0.0147877,0.0661201,0.0153236,-0.0254501,-0.00604397,0.01289
0.0566777,0.162943,-0.0032296,-0.00498319,-0.0204679,-0.00338805
0.023323,0.100165,-0.0131838,-0.00304312,-0.011789,-0.019299
0.0186497,0.0490933,-0.0784972,-0.0331042,0.0127009,-0.0483579
0.0588085,0.121446,-0.0995368,-0.00635022,-0.0145685,0.0110862
0.0319669,0.121474,-0.118039,-0.0229575,-0.00189519,-0.0159379
0.116153,0.216148,-0.111825,-0.0148486,-0.0110199,0.0167824
0.101641,0.214016,-0.0680911,0.002215,-0.0360919,0.0248505
0.0645923,0.164009,-0.0363348,0.0255292,-0.0146192,0.00361812
-0.000406097,0.120409,-0.0209688,0.0257559,-0.0426574,-0.00508708
0.00594522,0.144883,-0.0102151,0.00226724,-0.020502,0.0102312
-0.00829328,0.15873,0.00567455,-0.00110361,-0.0169293,0.0108009
-0.00190745,0.258792,0.00565612,-0.0295438,-0.00625229,0.00984061
-0.0050591,0.425913,-0.0191828,-0.0557088,-0.0109475,0.0222691
-0.0205861,0.504719,-0.0933091,-0.0599832,0.0468643,-0.0204595
0.291614,0.699304,-0.185265,-0.0214683,0.0565211,0.00749546
0.403034,0.69177,-0.18828,-0.0521443,-0.0190328,0.00366038
0.561969,0.776818,-0.194051,-0.016437,0.0175893,0.0322695
0.597432,0.704399,-0.165742,-0.0178252,-0.0001297,0.0596059
0.521733,0.672517,-0.162289,-0.0432211,0.0214566,0.0851169
0.458533,0.704519,-0.222989,-0.0193006,0.0430146,0.0852792
0.443609,0.76625,-0.146126,0.0145202,-0.0444305,0.0985984
0.442118,0.908875,-0.120597,0.0264511,-0.0500267,0.0135863
0.318909,0.75568,-0.112205,0.0260356,-0.0384048,0.0207021
0.340998,0.667304,-0.044403,0.0267224,-0.0448753,0.0278988
0.254583,0.539624,-0.040981,0.0488304,-0.0495282,0.00140202
0.173103,0.444936,0.00423119,0.0672746,-0.0541368,-0.0249264
0.0748349,0.162925,0.0183916,0.0841178,-0.0707343,-0.00448632
-0.00342847,-0.212768,-0.00996509,0.066283,-0.0317574,-0.0570402
-0.0941957,-0.39366,0.000968142,0.0700579,-0.0890019,-0.0332801
-0.207259,-0.330815,0.155947,0.0591502,-0.0508254,-0.00259113
-0.354248,-0.760754,0.190047,0.0484365,-0.123935,0.00155991
-0.623693,-1.20123,0.146743,0.000655293,0.00189883,0.0379717
-0.528125,-1.08742,0.200183,-0.0331604,0.0126163,0.0467688
-0.484733,-0.97142,0.175926,-0.0214799,0.000797391,0.0669164
-0.515233,-1.02569,0.202402,-0.028666,0.0358639,0.0710059
-0.457554,-0.74366,0.243467,-0.0735762,0.0864109,0.0509803
-0.468889,-0.754282,0.190885,-0.0906978,0.0671099,0.0622259
-0.350948,-0.771403,0.185809,-0.0598412,-0.0121531,0.000266314
-0.330426,-0.940673,0.204411,-0.00358698,0.081989,0.0747583
-0.253998,-0.55111,0.0967452,-0.109296,0.055783,0.07334
-0.273845,-0.33501,0.112371,0.00425887,-0.102932,0.0628347
-0.24385,-0.357393,0.141643,0.0285892,0.00844961,-0.0204883
-0.0794054,-0.130768,0.112241,0.00838262,-0.0308462,-0.0318173
0.126359,0.0564325,0.0651263,-0.0191539,-0.0601268,0.0248619
0.16228,0.196924,0.0289887,-0.019161,0.00121129,0.0193855
-0.0288506,0.257718,0.100639,0.0740255,0.0665908,0.00988376
-0.0461021,0.0639949,0.114555,-0.00282431,-0.0644072,-0.0309765
-0.0650267,-0.238295,0.0921531,0.0296043,-0.00503683,0.00178325
-0.127614,-0.194605,0.0753353,-0.0289932,-0.0449248,0.00845021
0.0197744,-0.110603,0.0362446,-0.0129849,0.0137926,-0.0131583
-0.00569158,-0.246831,0.00289432,0.000354826,-0.0287824,0.00264937
-0.152605,-0.283964,-0.00835495,0.0054037,-0.0159453,-0.00157773
0.0108326,-0.149966,-0.035559,-0.0199252,0.02843,-0.031126
0.0602834,-0.132974,-0.00931361,-0.0283185,-0.0146538,0.00985569
0.0123857,0.0331154,0.00497102,0.0308232,0.0121148,0.0856773
-0.0421548,0.12043,0.0417391,-0.012026,-0.0352861,-0.0237625
0.0644085,-0.0339836,0.000272417,-0.021509,-0.00605118,-0.0156927
0.0082174,0.0437691,-0.0111452,0.000979066,-0.0147288,0.026359
-0.0537457,0.0523199,0.0191917,-0.00637549,-0.0341912,0.0144923
-0.0296454,-0.00304503,-0.00510859,-0.0207707,0.00148332,-0.0115195
-0.0480749,0.022517,-0.00319889,-0.0144695,-0.00652564,0.0123163
-0.0600168,0.0267792,0.000940162,-0.0125005,-0.0219336,0.0113507
-0.0210207,0.000139904,-0.00287455,-0.00587487,-0.00585353,-0.0191224
-0.0135179,0.00971471,0.00255652,-0.00963935,-0.00811052,-0.00155538
-0.00912301,0.0054617,-0.00380556,-0.0119154,-0.0112134,0.00536013
-0.0123008,-0.0254111,-0.00703139,-0.00797331,-0.011853,-0.00176513
-0.022015,-0.0434949,-0.00711729,-0.00998023,-0.0105237,0.00848883
-0.027478,-0.0413688,-0.00183475,-0.00483871,-0.00420994,0.00564706
-0.0189195,-0.0296618,0.00575349,-0.00599146,-0.0115281,0.00754744
-0.0146135,-0.0105055,0.00578214,-0.00798011,-0.0106115,0.00571656
-0.0264577,-0.0136955,0.00136002,-0.014918,-0.00901794,0.00785261
-0.0221045,-0.0104953,-0.00179423,-0.00332242,-0.0107294,0.00747359
-0.0231395,0.00120703,-0.00718248,-0.0095365,-0.014764,0.0127115
-0.00909631,0.0224985,-0.0080995,-0.00150213,-0.0110028,0.00775325
-0.0229315,0.0150584,-0.028598,-0.00331664,-0.016171,0.00119817
-0.0165278,-0.0126267,-0.0177928,-0.00510412,-0.0127835,0.000971556
0.000692652,0.0214248,-0.0133454,-0.0057928,-0.016765,0.0167961
0.00164933,0.0565489,-0.00480399,-0.0134872,-0.0144479,0.00891513
0.0048496,0.0778344,-0.00264854,-0.013751,-0.00335991,0.0194693
-0.0221556,0.0512458,-0.00292426,-0.00682664,-0.0132298,-0.00579661
0.0060536,0.034189,-0.010091,-0.00717103,-0.0105225,0.00197804
-0.00253663,0.0171739,-0.014443,-0.00756755,-6.24657e-05,0.00264513
0.00293866,0.00439613,-0.0197239,-0.00805974,-0.00880861,-0.0083884
0.00935283,-0.0115787,-0.0110709,-0.000742614,-0.0152694,0.0027355
-0.000470439,0.0235588,-0.00585786,-0.00332779,-0.0148637,0.00691724
-0.0145463,-0.0222115,0.000443251,-0.0131121,-0.00774622,-0.000539899
-0.00136878,-0.0584028,-0.0154246,-0.00751251,-0.00850809,-0.0190867
-0.0112822,-0.0647933,0.0026634,-0.00441653,-0.0247977,0.0204964
-0.011255,0.0193039,-0.00812432,-0.0175761,-0.00250959,0.00688356
0.0289688,0.0022505,-0.0269211,-0.00174874,-0.00341344,0.00128317
0.01274,-0.00944963,-0.0249551,-0.0106255,-0.0145935,0.0203442
-0.0122859,0.0129224,-0.0124082,-0.00133044,-0.011972,0.0247554
-0.00264369,0.001204,-0.00265056,-0.00175086,-0.0123097,-0.00142276
-0.0385623,0.0257105,0.017265,0.00255251,-0.0164062,0.0208299
-0.00924104,0.0107851,0.00689971,-0.017109,-0.00593626,-0.0229018
0.035277,-0.0978216,1.61147e-05,-0.00839666,-0.000413775,-0.0230494
-0.0945964,-0.0743099,0.00815793,-0.024065,-0.0332679,0.0500562
0.0165681,-0.0169118,0.0232834,-0.00702435,-0.00371575,-0.0103121
-0.00325241,-0.124394,-0.0357258,-0.0109986,-0.0135629,0.0163439
-0.00668548,-0.069044,-0.0229724,-0.00554499,-0.00894272,0.00946158
0.0448559,0.0416227,0.001066,-0.00934473,-0.0105438,0.00427437
-0.00378245,-0.00837699,0.00377032,-0.0122536,-0.00817311,0.0118049
0.000358088,0.0416471,0.0166171,-0.00421277,-0.0188125,0.012892
-0.0192549,0.0576268,0.0292297,-0.000953436,-0.0119801,0.00825715
0.00679225,0.0618642,0.0198794,-0.00715405,-0.0108502,-0.00166041
0.0199024,0.0501466,0.00825931,-0.0134792,-0.00572705,-0.00675392
0.021082,0.0182162,0.00188349,-0.00169569,-0.0142385,0.00249302
0.0178096,0.0128973,0.00506618,-0.00519028,-0.0107036,0.0053702
-0.0038186,0.00546022,0.00589726,-0.0062452,-0.0137696,0.00796616
-0.0124564,0.00440272,0.00473012,-0.00182211,-0.0195888,0.00525182
-0.0243635,0.00760065,0.00565768,-0.00384787,-0.0228188,0.00125098
-0.00926398,0.010787,0.00904402,-0.00950393,-0.00691628,0.00113833
-0.0114411,-0.00837137,0.012252,-0.00235525,-0.0227746,-0.00233686
-0.00171342,0.0171704,0.0101971,-0.00796467,-0.0140988,0.00210059
-0.00270867,0.0203679,0.00161849,-0.00871521,-0.0145748,0.000343323
-0.00799007,-0.003047,-0.00805855,-0.00591514,-0.0144788,0.00330961
-0.000465326,0.0192973,-0.00585829,-0.00558436,-0.0114335,0.00122696
-0.00484779,0.0203658,-0.000552665,-0.00839245,-0.00865328,0.00351346
-0.00589377,-0.00411404,-0.00160866,-0.00786382,-0.00582218,-0.00281513
0.00705984,-0.00518863,0.000680592,-0.00659427,-0.00823683,0.00193441
0.0125277,-0.0105155,-0.00460813,-0.0108049,-0.000438929,-0.00798625
0.0245379,-0.00413392,-0.0162555,-0.0114591,-0.0145649,0.0158938
0.0222943,0.0320594,-0.0120327,-0.0089334,-0.00993872,0.0141126
0.0103673,0.0310063,-0.00895029,-0.00713211,-0.0077427,0.00234455
-0.00800885,0.00440461,-0.00699464,0.00277588,-0.0251994,0.00624228
-0.00594004,-0.0147557,0.00376041,-0.00486386,-0.0164982,-0.00348222
-0.0157029,-0.00517011,0.00578019,-0.00450388,-0.0118351,0.00474143
-0.0210736,-0.0179407,0.00358859,-0.00949371,-0.016445,0.00468922
-0.00479477,-0.0222092,-0.00157635,-0.0064787,-0.0138491,0.00473189
-0.0134442,-0.0232648,-0.00167016,-0.0102425,-0.0122122,0.00479054
-0.00487137,-0.0243382,0.00592226,-0.00411141,-0.0161474,0.00587928
-0.00815604,-0.0158258,0.00908251,-0.00510192,-0.0102002,0.00613451
-0.0103416,0.00547282,0.00904647,-0.00770667,-0.0177505,0.00157928
0.00263303,0.00652432,0.00918811,-0.00300044,-0.0114695,0.00754857
0.019842,0.0309899,0.0157797,-0.00435382,-0.0150046,-0.00140524
0.0251334,-0.000945703,0.029798,-0.0130943,-0.00879508,0.00600177
0.036048,0.0203367,0.0181203,-0.00733089,-0.0099951,-0.000224411
0.035108,0.0363051,0.00309991,-0.00730294,-0.0205753,0.00745839
0.0198665,0.00650718,0.0158042,-0.00156546,-0.013165,0.00292045
-0.0266541,-0.0232605,0.0206656,-0.000548929,-0.0131315,0.00602132
-0.00173494,-0.00624801,0.0145041,-0.00772387,-0.0108669,0.00339139
0.00920383,0.00120029,0.00177437,-0.00998732,-0.0137893,0.0053305
-0.001632,0.0129193,0.00271347,-0.00874585,-0.0121606,0.00597525
-0.00263722,0.0161114,-0.00480119,-0.0125178,-0.0146556,0.00300384
-0.00473629,0.0193101,-0.0112497,-0.0109485,-0.0112109,0.00123966
-0.00688266,0.00228424,-0.0112521,-0.00790954,-0.0133579,-0.00229573
-0.0263291,-0.0115483,-0.0114701,-0.00854293,-0.0127016,0.000689447
-0.0187866,-0.00835861,-0.0092432,-0.00600585,-0.0151917,-0.00205368
-0.0133787,-0.0211365,-0.00809857,-0.00794649,-0.0145112,0.00429648
-0.00693723,-0.0211371,-0.00373607,-0.00482011,-0.0121636,0.00428963
-0.00376537,-0.0147614,0.00270886,-0.00599334,-0.0116099,0.000805855
-0.00913605,-0.0179447,-0.000554334,-0.0121383,-0.00685388,0.00881082
-0.00911353,-0.016885,-0.00270322,-0.0044376,-0.0117694,0.00584221
-0.00910171,-0.0179473,-0.0037704,-0.00393748,-0.0164531,0.0103834
-0.0134652,-0.0349784,0.00154864,-0.000845999,-0.0137331,0.00649798
-0.00917844,-0.0200757,0.00372899,-0.00893098,-0.0103411,0.00617212
0.00162707,-0.000927613,0.00275587,-0.00756329,-0.0106883,0.00187063
-0.0102242,-0.0104948,-0.000576775,-0.00860697,-0.0135375,0.00351655
-0.0005019,0.00866231,-0.0015516,-0.00770009,-0.0107024,0.00106567
-0.00368896,-0.00304427,-0.00586017,-0.00863343,-0.0118409,0.00413215
-0.00909794,0.000151274,-0.00592696,-0.00797144,-0.0119418,0.00193536
0.00176857,0.00227232,-0.0111611,-0.00780094,-0.00418901,0.00145853
-0.00902497,0.00547547,-0.0134264,-0.00838929,-0.0114743,0.010791
-0.00371896,0.0161143,-0.0048107,-0.0113946,-0.0165389,0.00330997
-0.0135411,-0.00304923,0.00579436,-0.0179676,-0.00456715,0.00762928
-0.011368,-0.00410796,0.00475832,-0.0102105,-0.0115455,0.00107771
-0.018916,-0.0126218,0.00360542,-0.00738746,-0.0107649,0.000759542
-0.017794,-0.00942478,-0.000663594,-0.00845829,-0.00720799,-0.00170809
-0.0167131,-0.00836418,-0.000656315,-0.00392026,-0.0115843,-0.00399476
-0.00695485,-0.00198347,-0.00376383,-0.00908804,-0.0104429,0.0063495
-0.00696784,-0.0126231,-0.00160497,-0.00747758,-0.0118243,-0.00290149
0.00279211,-0.0190166,-0.0036295,-0.00400227,-0.0110958,0.00551659
-0.00161986,0.00120832,0.00272285,-0.0111614,-0.00905919,0.00399029
0.0136399,-0.0317985,-0.00563657,-0.00419781,-0.00831223,0.00244862
0.0276532,0.0118308,-0.00552528,-0.0129338,-7.7486e-06,0.00894243
0.0156094,0.0384501,0.00609217,0.00528693,-0.0260906,0.000981152
0.0243253,0.0171561,0.0019299,-0.00638956,-0.0156334,-0.00423473
0.0134763,0.0203558,0.0050148,-0.00683844,-0.0149713,0.00579476
-0.00701322,0.0118526,0.000503509,-0.0067395,-0.0218908,-0.00423855
-0.00270338,0.00439852,0.00270232,-0.00500041,-0.0135451,0.00328672
-0.00373352,0.00866097,-0.00266402,-0.00986785,-0.0137185,0.000616431
-0.0166868,-0.0136801,-0.00278475,-0.00564286,-0.0107937,0.00476074
-0.0145191,-0.00835638,-0.00383265,-0.00914943,-0.0102472,0.00604218
-0.01342,-0.0136851,-0.00489308,-0.00792778,-0.0113722,0.000761747
-0.0123335,-0.00730066,-0.00596016,-0.0117594,-0.0104069,0.00157285
-0.0101934,0.00334459,-0.0048726,-0.00752866,-0.00747329,0.00631255
0.00599011,0.00545828,-0.00148232,-0.0085963,-0.00738859,0.00717705
0.00813178,0.00438953,0.000681693,-0.00307471,-0.0132711,0.00342476
0.000561625,-0.0062458,0.00168226,-0.00706059,-0.0117345,0.00136107
0.00701042,-0.00198985,0.00496796,-0.00493121,-0.0133693,0.00343782
-0.00157665,-0.00943123,-0.000472805,-0.00742435,-0.011799,0.00363857
-0.00920891,-0.0126222,0.00586623,-0.00922421,-0.016958,0.0031333
0.0114478,0.0107743,-0.00678404,-0.00312245,-0.0160195,0.00509769
-0.0112226,-0.0158114,-0.00807393,-0.00974783,-0.0144696,-0.00361669
-0.0123086,-0.0211378,-0.00701612,-0.00420648,-0.0071339,-0.000736415
-0.00591195,-0.00943199,0.000544096,-0.00501376,-0.0149538,0.00101781
0.0005498,-0.0062433,0.00275637,-0.00921038,-0.0101488,-0.000953794
-0.000490004,-0.0147547,-0.000455618,-0.0070039,-0.0110552,-0.00120652
0.00491263,-0.0211509,0.000675976,-0.00830486,-0.011041,0.00107765
0.00815032,-0.0147681,0.000704383,-0.00939733,-0.0103543,0.00250661
-0.00375255,-0.0179477,0.00165005,-0.00757933,-0.00930035,0.00248277
0.00921651,0.00013425,0.0007025,-0.0123776,-0.00909209,0.00778794
0.0146152,0.00546211,0.000770536,-0.00712532,-0.010656,0.00591516
-0.00380305,0.0107895,0.00375896,-0.00810498,-0.0133761,0.00513506
-0.00490535,0.0193116,0.0048162,-0.00744933,-0.015135,0.00121158
-0.00491433,0.0171821,0.00588853,-0.00931025,-0.0116102,0.00135195
-0.0167477,0.00334655,0.00147588,-0.00651664,-0.0174685,0.00269616
-0.0188181,-0.0126077,-0.00601506,-0.0079653,-0.00887126,-0.00116789
-0.0220045,-0.0456112,-0.00817012,-0.00195456,-0.0153904,-0.000621796
-0.00593393,0.00121302,0.00160482,0.000436187,-0.0142219,0.000849962
-0.00371921,-0.017946,-0.00156055,-0.00624239,-0.0113947,-0.00239372
0.0113636,0.00227023,0.00180679,-0.0100122,-0.013728,0.0123545
-0.0048116,0.0150559,-0.00374427,-0.00887823,-0.0125772,0.00420034
0.0201713,-0.00838442,-0.0120112,-0.00523359,-0.0073961,-0.00503957
0.0276062,0.0139589,-0.00124466,-0.00762942,-0.0125555,0.00216407
0.00597874,0.016106,-0.00148907,-0.00409502,-0.0151811,-0.00149494
0.0134927,0.00226722,0.00504228,-0.00301516,-0.0129213,0.00138217
-0.0146804,0.0193141,0.00898362,-0.00854236,-0.0177808,0.00735235
-0.00919535,-0.00304483,0.00371116,-0.00953904,-0.00668222,-0.0107398
-0.0178051,-0.0104852,0.00041353,-0.0114719,-0.015597,0.00548834
-0.0134395,-0.0062304,-0.00382526,-0.00475937,-0.0116711,0.000689447
-0.0188139,-0.0158051,-0.00601694,-0.00939915,-0.0147293,0.0034405
-0.0287313,0.0118824,0.00884354,-0.00493318,-0.00890982,0.00375319
-0.0232107,0.0225177,-0.00289291,-0.0278599,-0.00359261,0.0098843
0.0135862,0.0203667,-0.00568056,-0.00621647,-0.0118755,0.00356233
0.0136213,0.00865383,-0.0078155,-0.00803214,-0.00786293,0.00932074
0.0243143,0.016095,0.00300624,-0.00032109,-0.0161004,0.00297052
0.014607,-0.00731815,0.00291669,-0.0029498,-0.0128431,0.00649965
0.0059089,-0.0158254,0.00818446,-0.00540006,-0.0148386,0.00438881
-0.00595233,-0.0264583,0.0059223,-0.00637919,-0.0189146,0.00185472
-0.0189223,-0.0307094,0.00577604,-0.00781325,-0.0086112,0.00111556
-0.0232571,-0.0200655,0.0057113,-0.0105775,-0.020636,0.00756139
0.000553493,-0.0115586,0.00277068,-0.00841337,-0.0114708,0.0021264
0.00931664,-0.0115681,-0.00784465,-0.00933874,-0.0179377,0.00626582
0.0223203,0.0150377,-0.0130741,-0.018756,0.00402606,-0.00227475
-0.00920053,0.0246312,0.0015415,-0.00605601,-0.00536633,0.00513673
0.00485315,0.0256914,0.00170751,-0.00631928,-0.0168652,0.00289232
-0.00913718,0.00441448,-0.00271164,-0.00355804,-0.0157965,0.00756639
-0.00583021,-0.000917514,-0.00803345,-0.0115311,-0.00788295,0.00574869
-0.00801336,-0.00516325,-0.00589845,-0.00749457,-0.0151205,0.00561661
0.0199656,-0.0168978,0.0083479,-0.00640005,-0.0137035,-0.00110275
-0.0112844,0.000159099,-0.00380169,-0.00797158,-0.0117557,0.00454366
-0.00374236,0.005471,-0.00158555,-0.00690666,-0.0114803,0.00350684
0.0124211,0.00333459,0.00396072,-0.00500536,-0.0113657,0.000293732
0.00803967,0.00439877,0.00926087,-0.00470066,-0.00933683,0.00346017
0.0167303,-0.00199669,0.00614959,-0.00619161,-0.0102853,0.00420779
0.00597981,-0.00837262,0.000682474,-0.00710952,-0.0138716,-0.0037927
-0.00151642,-0.00410054,-0.00689308,-0.00547153,-0.0128814,0.00475878
-0.00593109,-0.00197884,0.00160996,-0.00808418,-0.0120913,0.0046699
-0.00377556,0.00334895,0.00163812,-0.00707394,-0.0117493,0.00528526
-0.00376012,0.000151212,0.000564869,-0.00803429,-0.0103799,0.00197637
-0.00375927,0.000147524,0.000560181,-0.00863934,-0.0143133,0.0031091
0.00161364,0.00972902,0.00276045,-0.00843519,-0.0127164,0.00301498
0.00701404,0.0161094,0.00281219,-0.00302458,-0.0120641,0.00636464
0.0080733,0.0267536,0.00388516,-0.00387061,-0.0185122,-0.00114685
0.0102952,0.0107919,-0.000349306,-0.00435179,-0.0110525,-0.00258064
0.0113709,-0.00412025,0.00180849,-0.00676355,-0.00989246,0.00464606
0.00275497,-0.00517507,-0.00149709,-0.00399026,-0.0112768,0.00311494
0.0048752,-0.00836806,0.00281687,-0.00394857,-0.0130194,0.00492924
-0.0047908,-0.00729111,-0.0037133,-0.00473288,-0.0135694,4.11272e-06
-0.00477393,-0.010495,-0.00479437,-0.00911906,-0.0114472,0.000274897
-0.00801283,0.00654153,-0.00698661,-0.00720176,-0.0128331,0.00437093
-0.0188659,-0.0104759,-0.00172975,-0.00680506,-0.0158159,-0.00686938
-0.00367926,-0.0253919,-0.004759,-0.00612712,-0.00935507,-0.000661016
-0.00161272,-0.0179486,0.0038173,-0.00932515,-0.0085516,-0.000461996
0.00487048,-0.0147554,0.00389346,-0.0104556,-0.0118223,-0.000330567
0.00703563,-0.00624103,0.00283885,-0.0100146,-0.0099653,0.00194138
0.013572,0.00120492,-0.0024504,-0.00977182,-0.010704,0.00168711
0.0135738,0.0107845,-0.00353175,-0.00930429,-0.0132837,0.00432146
0.00706024,0.0246316,-0.00254265,-0.00294971,-0.0132778,-0.00156033
0.019104,0.053368,-0.0195657,-0.0169995,-0.0118119,-0.00208467
0.0353594,0.084225,-0.0258391,-0.00670123,-0.0150852,0.00362855
0.015837,0.0650811,-0.0185413,-0.0080578,-0.0186471,0.00997424
0.0158123,0.045916,-0.0142444,0.000535905,-0.0152726,0.00894123
-0.007003,0.0214444,-0.0016332,-0.00106791,-0.0141472,0.00797004
-0.0308159,-0.0221735,0.00457623,-0.000176609,-0.0126103,0.00536215
-0.0438472,-0.042398,0.0119342,-0.0065209,-0.0105801,0.00639749
-0.0416633,-0.0413349,0.00981609,-0.0108367,-0.00330007,0.00766832
-0.0297504,-0.0381501,0.00780608,-0.0135431,-0.00763142,0.00551856
-0.0124188,-0.0243271,0.00370158,-0.0101358,-0.0104092,0.00125694
-0.0102312,-0.0179325,0.00051885,-0.00885046,-0.00962621,0.00527233
0.00484466,0.000145599,0.00494758,-0.00602996,-0.0137782,0.00394338
0.00589199,0.000145538,0.00817356,-0.00811794,-0.00937551,0.00289667
0.0102133,0.00333789,0.0082221,-0.00559324,-0.0144483,0.00489807
0.0080379,0.00546631,0.00926371,-0.00462186,-0.0137227,0.00601685
0.0124182,0.0054669,0.00396288,-0.00827503,-0.00974095,0.00147069
0.0124263,0.00972011,0.00288178,-0.00233862,-0.0136584,0.00492597
-0.00260754,0.00548167,-0.00691336,-0.0030514,-0.0159568,0.0019207
-0.00374542,0.00654407,-0.00157567,-0.00603077,-0.0141352,0.0022912
-0.00266329,0.0161268,-0.0026397,-0.00848109,-0.0105114,-0.00328881
-0.00375394,0.0363542,-0.00374082,-0.00789565,-0.0111974,0.000319421
0.0223393,0.061881,-0.0195379,-0.00826508,-0.0166548,-0.00536156
0.022266,0.0672057,-0.0131146,-0.00921431,-0.00912267,0.00291967
0.0201932,0.033147,-0.0184564,-0.0012688,-0.0112717,-0.0100714
0.0136985,0.0086603,-0.0153038,-0.00412703,-0.0144204,0.00948977
0.0235046,-0.0115649,-0.0205192,-0.00717914,-0.00531787,0.0027411
0.00293766,-0.0221933,-0.0175272,-0.0114751,-0.0119334,0.0101264
0.394682,0.098766,0.357253,0.061811,0.0908923,-0.0462635
-1.13745,1.65074,0.707766,0.453869,-0.132811,-0.0539334
-1.17224,-0.0488442,-0.661474,-0.0317038,-0.117939,-0.0883611
-3.41165,-0.271979,0.0735945,-0.223933,-0.398767,-0.151263
-0.521131,-1.03088,-0.164867,-0.365874,0.616713,0.00306761
4.82539,-0.89627,-0.820744,-0.346363,0.482665,0.365994
5.38137,-0.598432,-1.58887,-0.114757,0.195428,0.325595
6.18148,-1.28057,-0.477364,0.0534924,-0.055011,0.242078
4.96027,-1.00319,0.667049,0.24393,0.0702768,-0.011952
1.12255,-1.85598,-0.188267,0.634981,0.0619073,-0.0949304
0.665915,-1.17641,-0.639534,0.250725,0.0139648,0.217364
0.0591577,-0.536327,-0.173772,0.0761781,-0.0591234,0.135712
-0.10526,-0.178572,-0.0999771,-0.0624928,0.0407035,0.0437577
-0.0869333,0.00554426,-0.00893949,-0.012292,-0.0862499,0.0605441
-0.0805625,-0.0051326,0.106783,-0.00542687,-0.021461,0.00924695
-0.0626929,0.00657851,0.0512982,0.00480202,0.0108017,0.0393006
-0.128537,0.0630479,0.0344356,-0.0212595,0.0173128,-0.0230416
-0.0312829,0.064041,0.0408924,0.00859731,0.0258354,-0.018349
0.0230531,0.0363305,0.0179792,-0.00342159,0.00665396,-0.0369081
-0.0180297,-0.000899631,0.0207584,-0.00113392,0.0222204,-0.00598133
0.0295648,0.0576127,0.0137447,-0.00376628,0.0270872,-0.0128641
-0.0169015,0.0523274,0.0110849,0.00218016,0.0196781,-0.0112563
-0.0255153,0.0619107,0.00668943,0.00088349,0.0191575,-0.0240149
-0.00406123,0.0320819,0.026231,-0.00107725,0.00291938,-0.00434065
-0.0214035,0.00654925,0.0324884,-0.00895266,0.00292486,-0.00605249
0.0338796,0.0352503,0.017022,-0.012307,-0.00377339,-0.011645
0.0166333,0.00333273,0.0147207,-0.00504823,0.0135085,0.00180537
-0.00623253,-0.00516806,0.0305336,-0.004622,0.00400841,-0.00181991
0.00152501,0.0299578,0.00917078,-0.00944676,0.0120746,0.00172603
0.00693908,0.0118536,0.0103157,-0.0019341,0.010178,0.0104159
0.0175124,0.0618664,0.0285823,-0.00971214,0.00740564,-0.017826
