rotation_x,rotation_y,rotation_z,acceleration_x,acceleration_y,acceleration_z
0.0411578,-0.0335276,-0.0120674,-0.000653554,-0.0115224,0.0138378
0.0306516,-0.0292037,0.0124389,-0.0141884,-0.0128855,0.00162351
-0.024869,-0.0377391,-0.00587791,0.00644461,0.0126517,0.00479424
-0.0355558,-0.0110391,-0.0135706,-0.000716962,0.0022313,0.00848222
-0.0226453,-0.0313053,0.00904678,-0.000621792,0.00262201,-0.0122428
0.0156074,-0.0527266,-0.0066963,-0.00545703,0.0020467,-0.00499302
-0.0157128,-0.0998192,-0.0727528,-0.00902431,0.00234437,-0.000883341
-0.0182743,-0.142664,-0.140866,-0.00743332,0.0050233,-0.00164247
0.00160032,-0.155605,-0.201607,0.00678449,0.000870705,-0.000127316
-0.0579912,-0.190782,-0.185576,0.0163164,-0.00510299,0.0112768
-0.0242868,-0.170629,-0.252894,0.00412579,0.000978291,0.00845945
-0.012438,-0.0937029,-0.238388,-0.00283604,0.00326937,0.0492651
-0.0319221,0.0357676,-0.122841,0.00169868,0.0020951,0.0194969
-0.112438,0.0100193,-0.221273,-0.0137212,-0.0236273,-0.0151625
0.00522819,0.0431743,-0.147325,-0.0117389,-0.00719118,0.0165818
-0.0578748,0.0520077,-0.00978724,-0.00378854,0.0165048,0.00494242
-0.145487,0.108922,0.123071,-0.0225363,0.00844455,-0.0140511
-0.124974,0.056651,0.172635,-0.0049187,0.00441125,-0.0448816
-0.0382747,0.0460193,0.239274,-0.0144576,-0.0119866,-0.0244403
0.00572509,0.0845281,0.288335,-0.0572171,-0.049285,0.0299048
0.0589414,0.232928,0.265135,-0.160266,-0.0684258,0.0582218
0.101827,0.221536,0.488676,-0.127467,-0.0273083,0.019532
-0.285678,0.214452,0.546034,-0.00511251,-0.00389564,-0.00532216
-0.0972159,0.417955,0.327458,0.0559814,0.044319,0.0129424
-0.336751,0.35398,0.901802,0.240263,0.0563907,-0.0864973
-0.272117,0.406158,0.836531,0.172171,-0.00955054,0.0607038
-0.141832,0.786056,0.673219,0.138028,-0.00927895,0.0232204
-0.11703,0.715321,0.5509,0.0706496,0.00289357,0.0149254
-0.148761,0.534603,0.428013,-0.0167695,0.00159165,0.0420132
-0.538494,0.360879,0.484307,0.000526667,0.0296738,0.158649
-2.15822,0.906492,1.47798,0.0880861,-0.0255864,0.385319
-2.1008,1.48044,2.29718,0.182876,-0.0209232,0.112255
-1.30258,1.83567,1.75723,0.0955392,0.132667,-0.19288
-1.2022,1.40155,0.941987,-0.0634664,0.0359831,-0.130103
-0.0568403,1.06575,0.606547,-0.113273,0.0645063,-0.192374
-0.0187272,0.694412,0.242621,0.0623045,0.0908639,-0.188179
0.0921976,0.296115,-0.237319,0.0812688,0.0449152,-0.130208
-0.108724,-0.192003,-0.294741,0.0539897,-0.0402022,-0.0768666
0.0221891,-0.475175,-0.293482,0.0310225,-0.0202969,-0.0552284
0.098925,-0.632229,-0.276149,0.0432847,-0.00206411,-0.0142471
-0.0221639,-0.587925,-0.0386263,0.0234365,-0.0127998,0.0692438
0.0207683,-0.233277,-0.0183288,0.0114709,-0.00797337,0.0484288
0.216167,-0.158855,-0.134539,-0.042514,0.0892092,-0.13091
0.148022,-0.866009,-0.775552,0.0415285,0.228561,-0.065231
0.171665,-0.931608,-1.62659,0.114989,0.136242,0.0933667
-0.712148,-0.927393,-0.821114,0.134666,-0.0320985,0.183678
-0.605489,-0.453679,-0.48936,-0.0631546,-0.121177,0.0384099
0.154397,-0.0871078,-0.670527,0.0657941,-0.0294953,-0.0554561
0.0199114,-0.125211,-0.527613,0.0667681,-0.093396,-0.0341339
-0.172389,-0.167624,-0.430829,0.0541198,-0.154487,0.0238318
-0.420946,-0.111361,-0.128686,0.048365,-0.108861,0.0797838
-0.31972,0.2456,0.017892,0.0220248,0.00122455,-0.0261794
-0.43355,-0.0279917,-0.105767,-0.0618106,0.0276117,0.0109796
-0.251432,0.103215,-0.131578,-0.0556244,0.0300081,0.0148874
-0.202556,-0.113362,0.0430967,-0.0424566,-0.0140503,0.000769913
-0.193628,-0.266737,0.302689,-0.0658138,0.021847,0.0192038
-0.0918595,-0.0301724,0.0162601,-0.0380368,0.0924395,-0.0166664
0.109616,0.0940405,-0.335311,0.0366955,-0.0170517,-0.0168436
-0.246599,0.0318197,-0.0295947,0.0593502,-0.0444716,0.0259473
-0.0729207,0.187933,0.134585,0.0362987,-0.0115919,0.0270411
-0.130267,0.100455,0.174467,-0.00355983,-0.029554,-0.0148832
-0.0872372,0.102366,0.0645675,-0.0408521,0.0291598,0.00369477
0.0511778,0.204451,-0.139649,-0.0238099,0.0121095,0.0117012
-0.0787798,0.176791,-0.13141,0.00187387,-0.00589406,0.0143085
-0.158561,0.0978552,-0.102349,0.0115581,-0.00298983,-0.0297202
0.217968,-0.160466,0.166782,0.0333711,-0.137209,-0.0597935
0.314911,0.03553,0.502435,0.0947802,0.0245709,-0.0263097
0.299811,0.393905,0.796013,-0.0155098,0.0113879,0.0465395
0.0290559,0.095024,0.803349,-0.045156,0.0558332,0.0143828
-0.108248,-0.23868,0.501558,-0.0580736,0.0771911,-0.00590253
-0.0920021,-0.137018,0.00199521,-0.0824192,0.0333412,-0.00755203
-0.399635,-0.465209,-0.274827,-0.00787714,-0.0102482,-0.0023402
-0.386788,-0.677741,-0.24562,0.050853,0.00286716,-0.00959849
-0.162532,-0.501849,-0.355971,0.0219384,-0.00274897,0.0283029
-0.0479187,-0.254287,-0.455443,0.0787564,-0.0298313,0.0146654
-0.0693638,-0.350877,-0.112996,0.0978878,-0.0196478,-0.0255235
-0.153387,-0.545909,0.108055,0.0577888,-0.0160006,-0.0279509
-0.263177,-0.588561,0.104718,0.00884943,-0.0157164,-0.0271998
0.0283619,-0.420461,-0.157054,-0.0496271,0.00153273,0.0207636
0.342525,-0.181506,-0.205506,-0.045586,-0.0174116,0.0667964
0.177765,-0.0135847,-0.154857,0.0107882,0.027653,0.00980818
-0.0954047,-0.0850532,-0.215251,0.0135271,0.0173057,-0.00406271
-0.22362,-0.239926,-0.26067,0.0144043,0.00608957,-0.031333
-0.603375,-0.525243,-0.485684,0.00515702,0.0429387,-0.0371336
-1.00514,-0.472936,-0.679849,-0.000295803,0.0186379,0.0243924
-0.290152,-0.137793,-0.526556,0.0171423,-0.0515774,0.0646918
0.0945617,0.0334453,-0.174708,0.0208128,-0.0564203,0.0437711
0.779753,0.165695,0.00329624,-0.00551701,0.0199873,-0.0019154
-0.039303,0.210509,0.230724,-0.00124002,-0.0423896,0.0391955
-0.157773,0.290643,0.190229,-0.0251993,-0.0275099,-0.00629699
-0.24266,-0.0723215,0.282012,0.00265813,-0.0196429,-0.00430429
-0.185896,-0.0875433,0.15411,0.00872196,-0.0126184,-0.00234139
-0.00483303,0.0906612,0.125852,0.0101278,-0.0233649,0.00857955
0.0127092,0.055547,0.211621,0.0158798,0.00437105,0.0126483
-0.0716056,0.0352767,0.190069,-0.00106917,0.00020349,-0.00972724
-0.246621,0.00969681,0.146841,0.00702396,0.00172508,0.0218948
-1.03323,0.0614794,0.0976171,0.0290484,-0.0568362,0.00677758
-0.337298,0.0484941,0.303313,-0.00428379,0.0357741,-0.0587974
-0.0227424,0.133145,-0.021938,-0.0514637,0.0427773,-0.0499587
0.985418,0.110898,-0.700756,-0.0271748,0.0270148,-0.0498437
0.654356,-0.216202,-0.975536,0.038258,-0.0153089,-0.0212861
-1.43747,-0.361455,-0.644794,0.102807,-0.0597569,0.0461739
-0.0145201,-0.0851425,-0.230973,0.0596168,0.0736549,0.0944147
0.796054,-0.0769787,-0.0997806,-0.00637582,-0.0154601,0.00129277
2.9639,0.49843,-0.58581,-0.1438,-0.0450018,-0.122852
2.53525,0.678851,-0.832193,-0.0427523,-0.210566,-0.00832337
2.02884,0.46692,-0.684201,0.0127627,0.0523523,0.00527722
1.36716,0.492608,-0.329982,0.0592736,0.118259,0.0605137
1.05624,0.688354,-0.313183,0.0404327,0.106999,-0.0346855
0.673721,0.406994,-0.109788,-0.0248042,0.0652398,-0.0549651
0.487992,0.324041,0.0204069,-0.0613452,0.0334389,0.00470603
0.331649,0.539677,-0.129024,-0.0454078,-0.0111846,0.0525858
0.357472,0.681778,-0.0999298,-0.0152456,-0.01659,0.0053677
0.226626,0.389609,0.139737,-0.0110232,0.0162944,-0.0496892
0.154475,0.0917691,0.217259,-0.0341049,0.0412078,-0.0217655
-0.0811511,0.0441539,0.374815,-0.0181718,0.0205802,0.0313258
0.0508327,0.34244,-0.031565,-0.0088218,-0.0225263,0.0228755
0.216005,0.873136,-0.0760565,-0.0118145,-0.0248592,0.139287
0.0290483,1.63772,0.307201,-0.0123153,-0.0653308,0.155977
0.124048,2.00572,0.658825,0.0372581,-0.0690141,0.0410937
-0.114895,1.93351,0.798365,0.0925779,-0.0386871,-0.00806171
-0.29537,1.74159,0.926081,0.0896585,-0.0106748,-0.0258576
-0.677922,1.46876,1.12301,0.046599,-0.00943077,-0.00784695
-1.16801,1.08861,0.985812,0.0447287,0.0259238,0.0525934
-0.636192,0.690005,0.509587,0.0254571,0.0359015,0.0365652
-0.296131,0.307884,0.215239,0.0108467,0.0125504,-0.00405097
-0.275565,0.13356,0.106397,0.00802386,0.0141181,-0.0274401
-0.198158,-0.473877,-0.25799,0.0208759,0.0223697,-0.0567318
-0.148499,-1.8523,-1.09508,0.158627,0.0108519,-0.0749527
0.635369,-2.75183,-1.42821,0.182956,0.0539231,-0.152654
0.518163,-2.8027,-1.24562,0.0567467,-0.0692503,-0.0327389
0.307808,-2.40901,-1.00001,0.0416288,-0.0397891,0.0887367
0.173852,-1.67018,-0.660194,0.0417241,-0.0652065,0.176247
0.0428389,-0.624596,-0.212304,0.0682001,-0.0482742,0.154484
0.0688628,-0.322229,-0.16395,0.0949807,0.0272418,0.000844479
-0.766548,-0.552755,0.204101,0.0848327,0.0115566,0.0152643
-1.87771,-1.08344,0.457672,0.116438,0.294555,0.0355555
-0.817238,-0.30787,-0.276341,-0.0113613,0.125582,0.0860347
-1.51376,0.64237,-0.84284,0.0239123,0.00778025,0.135361
-0.828693,0.857135,-0.514723,-0.0429779,-0.221834,-0.105674
0.594157,0.306449,-0.220553,-0.0242314,-0.176783,-0.285578
0.263653,-0.14652,-0.39087,-0.0378085,0.141044,-0.000765681
-0.179337,-0.356823,-0.506559,-0.0226085,0.105261,0.108938
-0.2798,-0.500087,-0.0102468,0.0232378,-0.0610009,0.0219595
-0.219644,-0.0898632,0.0343312,0.0331488,0.00810288,0.0927114
-0.598455,0.5465,-0.293884,0.0487539,0.0736864,0.11925
-1.33091,0.427923,-0.003101,0.0787122,-0.0597476,-0.0354191
-0.30153,0.177566,0.214997,-0.0380781,-0.140937,-0.181171
0.526843,0.100313,-0.233356,-0.0495874,-0.0918094,-0.142724
0.303542,-0.197057,0.0476713,0.00685178,0.0284234,0.0242023
-0.122516,-0.198517,0.25016,-0.00209842,0.0544631,0.0827097
0.0106367,0.115821,-0.140298,-0.0192845,0.0258631,-0.0175526
0.1909,-0.00312383,-0.275611,0.00429452,-0.0373674,-0.078827
0.289325,-0.173656,-0.0155732,0.00342116,-0.0266269,-0.0231923
0.0559844,-0.501055,0.192956,0.0189279,0.0294639,-0.0109534
-0.0819575,-0.544883,0.114727,0.0355475,0.101209,0.0673585
-0.314398,-0.00174498,-0.317046,0.0402145,0.110116,0.11249
-0.56932,0.517124,-0.586339,0.07143,-0.124896,0.0267391
-0.493985,0.241467,0.632692,0.0373072,-0.162242,-0.0412295
-0.381094,-0.289583,1.20604,-0.0162002,0.0331938,-0.0641959
0.0848323,-0.0649817,0.345161,-0.0946089,0.0275774,-0.0339673
0.344707,0.266015,-0.237248,-0.00911037,0.019888,0.0295756
0.015315,0.155456,-0.0742914,-0.000407578,0.0270678,0.011804
-0.211982,-0.0908783,0.0685588,0.0104439,0.00796284,-0.0375716
-0.150885,-0.584252,0.173489,-0.044405,0.0287844,-0.130642
-0.331857,-1.34771,0.269647,0.0367852,0.017211,-0.0234287
-0.627796,-1.31248,0.133687,0.0317538,0.0535747,0.0342008
-0.669921,-0.731911,-0.191839,0.0400679,-0.00736274,0.0636948
0.215773,-0.0155402,-0.0350364,0.0498378,-0.0517795,0.0494144
-0.0617819,0.142454,0.397756,0.0781943,-0.023541,-0.0555668
-0.221523,-0.0272194,0.427108,0.000305653,-0.000704482,-0.0394999
-0.322641,-0.208679,0.46103,-0.0181597,0.00993954,0.0074923
-0.302846,-0.146122,0.202132,-0.0366754,0.00910959,-0.00194263
-0.0569675,-0.0729996,-0.0250004,0.00793868,-0.0513493,-0.0350572
0.270638,0.0810073,0.222037,0.00526881,-0.058517,0.0225408
0.282061,-0.0242014,0.537955,0.0105802,-0.0401411,-0.0419465
-0.898514,-0.521013,0.58377,-0.0224046,-0.0606379,-0.0256636
-1.23354,-0.718037,0.168167,-0.00726092,0.0966747,-0.00332534
-1.97851,-0.416961,-0.244723,0.0285737,-0.00794941,0.0991983
-1.46027,-0.00817727,-0.214448,0.0385157,-0.0198256,0.0154884
-0.776481,0.040982,0.0933687,0.0525835,-0.0340565,-0.0220847
-0.593082,0.0291333,0.11657,0.011804,0.00532883,-0.00515878
-0.158787,-0.0386089,0.0502563,0.00366792,0.0131137,-0.0075388
0.056407,-0.0216933,0.0424031,0.000421107,0.0220706,0.0135829
0.0795818,-0.00576821,-0.00355638,0.00199753,0.00296009,-0.00178999
0.100862,0.00915898,-0.00998342,-0.00357354,0.0181308,-0.00565684
0.118911,0.0208756,-0.021746,0.0053677,0.0223538,-0.00300431
-0.154942,-0.0408697,-0.0191635,0.00219178,0.00509453,-0.00172168
-0.00864151,-0.0985583,0.0405213,0.00256824,-0.0107402,0.0161968
-0.0279781,-0.0291676,0.00794631,0.00674987,0.00363934,0.0294044
0.0478119,0.0284902,0.026019,0.0040313,-0.00677752,0.00941384
-0.00351507,-0.00249821,-0.00175049,-0.00140744,0.01173,0.00967276
-0.00456202,-0.0035597,0.00145716,0.00900358,0.00695097,0.00223339
-0.0236905,-0.00353023,0.00993255,0.0078029,-0.00205314,-9.32813e-05
0.0285764,0.0316928,0.0163093,-0.00072813,0.00209916,0.012261
0.00714174,0.0135153,-0.00288391,0.000236988,0.00489503,0.00831473
-0.0152892,0.00603975,-0.0114668,0.0037871,-0.000736058,0.00990516
0.00293296,-0.00782711,0.00792405,0.00763988,0.0054338,0.00296992
-0.0225025,-0.00135877,0.0302225,0.00172645,0.0141003,0.00251865
0.0157951,-0.00995151,0.0208091,0.00526011,0.0168672,-0.00842321
0.0114344,-0.00250029,0.00364821,-0.000623584,0.0076316,0.00514805
0.0166952,0.0049538,-0.00813601,0.00481963,0.00578505,0.0125776
-0.0204976,-0.0110099,0.00999282,0.00616598,0.00554377,-0.00185239
-0.0109048,-0.0174235,0.0111368,0.00139117,0.00435162,0.0046137
-0.00781576,-0.0153215,-0.00702815,0.00755695,0.00981069,-0.00128037
-0.0237305,-0.019562,0.00469316,0.00547758,-0.00585341,0.00609207
-0.010835,-0.00565468,0.0217452,0.00281924,0.00416398,0.0106103
0.0394959,0.112932,0.05322,-0.0141124,0.00700366,0.0290732
-0.760818,0.233123,0.0227332,-0.0321852,-0.044441,0.020554
-0.431834,0.555658,0.128718,0.0112495,0.0254171,0.043771
0.0365524,0.363997,0.0729513,-0.0198585,0.000407457,-0.0623842
0.306787,0.155407,0.0240297,0.00768471,-0.0230762,0.0291126
0.486944,0.243944,0.0305386,0.00415742,0.00447643,0.0257964
0.00825036,0.0231398,0.00346786,0.0244418,-0.023905,-0.036356
-0.787596,-0.325794,-0.128667,0.0531705,-0.00530583,-0.0767028
-2.80015,-0.985332,-0.0379036,0.0588939,-0.0674415,-0.0823359
-1.26238,-0.561033,0.142465,0.0135715,0.00440282,0.0980215
0.158674,-0.0559538,0.0419392,-0.0621291,0.0396052,0.0648646
0.371493,0.0837147,-0.0180011,-0.0400464,-0.00218928,-0.0111935
0.275571,0.0869833,-0.0226544,0.00354886,-0.00291127,0.020232
0.173628,0.13202,0.0311608,0.013736,-0.0278434,0.0229952
0.0798161,0.105376,0.0256398,0.0128735,-0.00621152,0.00556731
-0.225543,-0.184014,-0.0526919,0.0484019,-0.00736463,-0.071642
-0.909262,-0.273113,0.0115696,0.00506335,-0.000316441,0.000104427
0.578047,-0.118345,-0.0255342,-0.014313,0.010656,0.0412227
0.470959,0.162783,0.0374184,-0.00336599,-0.0341601,0.0772109
0.293087,0.20566,0.0450202,-0.00944608,0.0384694,-0.0323246
-0.35778,0.0887143,0.0818058,0.0322092,-0.038918,-0.0278867
-0.782628,-0.166453,-0.0249749,0.033721,-0.0483897,-0.026545
-0.322148,-0.196653,0.00792953,0.016389,0.0298269,-0.00794244
0.125303,-0.0581639,-0.0147998,-0.0129329,0.00331962,0.022992
0.0453298,-0.0346246,-0.027004,-0.00805995,-0.00413942,0.00473261
0.106082,0.0507786,-0.0316056,-0.00275961,0.00198352,0.0165
0.0870911,0.018806,0.0027228,0.0219648,-0.00360757,-0.0253072
-0.0196318,0.0882584,-0.0323165,-0.0110073,0.0101345,0.0142708
0.221436,0.118059,0.00899257,0.0135277,0.007581,0.0150464
0.184559,0.223944,0.0690695,-0.00614238,-0.00378788,-0.00151491
0.0556012,0.102277,0.0747158,0.00706086,0.00688958,-0.00967515
-0.188862,-0.056811,0.0117936,0.0225996,-0.00113595,-0.0486636
-0.763382,-0.18674,-0.0119508,-0.00692326,2.98023e-05,-0.018666
0.311486,-0.0786799,-0.0599123,0.00724739,-0.00292879,-0.00622046
0.399021,0.0793719,-0.0467204,-0.0158667,0.0164173,0.029494
0.0832081,0.112908,0.0576561,0.00107253,0.00905311,-0.00382304
-0.0450103,0.0167769,0.00651353,0.0244139,0.0362329,-0.061523
-0.660055,-0.131288,-0.0215404,-0.00974077,0.00120592,-0.0333802
0.075205,-0.0431788,-0.0193589,-0.000137299,-0.0112678,0.0068996
0.0389749,-0.0474249,-0.019466,-0.000536621,-0.0186155,-0.0129509
0.0572493,-0.0078746,0.00385242,-0.0064154,-0.000393629,0.0180355
0.0135067,0.00816216,-0.00709926,0.00380963,0.0064013,-0.00768161
-0.00788556,0.0113592,-0.0210915,0.0011608,-0.00172764,-0.00691259
-0.00777698,-0.00142513,-0.00177701,0.0119928,-0.0124741,-0.000883579
-0.008713,0.0146336,0.0184167,0.00265118,-0.00438797,0.00749934
0.0487862,0.038076,0.00993196,0.00221074,0.00829113,0.00588465
-0.0140045,-0.00244015,0.0259861,0.00797936,-0.0099625,-0.00751853
0.000796313,-0.0185061,0.00798236,0.0101579,-0.0055818,-0.00164413
0.00940191,-0.0216921,0.0219235,0.0068579,-0.00521523,-0.00536227
-0.0151834,-0.0120851,0.00788118,-0.00226295,0.00637507,0.00199556
0.0134618,-0.00466638,-0.013429,-0.000342131,0.00351816,0.00442624
0.124534,0.0369794,0.0262487,0.00175974,0.000154018,-0.00706577
0.294108,0.0774823,0.0490596,0.0144581,0.00712156,-0.000345945
0.0274976,-0.0719103,0.0233883,0.0231459,-0.0135209,-0.0497778
-0.521396,-0.105719,0.00018405,-0.0180312,0.0162142,-0.00438237
-0.000516009,-0.013236,-0.0337283,-0.00193095,0.0151889,0.0062604
0.0721528,-0.0228417,0.0029354,0.00972277,0.00631618,-0.00233173
0.0592955,0.00171234,-0.0111623,-0.00666773,0.00236398,-0.00664997
0.0273051,0.0166816,-0.016721,0.00424871,-0.00276583,-0.00467217
-0.0056665,0.020995,-0.00725454,0.00277901,-0.0109075,-0.00412178
0.0519349,0.0188345,0.00365877,0.00670201,0.000537455,0.00149608
0.445207,0.125371,0.0108501,-0.00877762,0.00774735,0.0265043
1.34128,0.238968,-0.00255876,-0.00365761,0.105183,0.00221944
0.0862248,-0.00463207,0.0381305,0.0252205,0.00469077,-0.0881621
-1.46948,-0.207469,0.0453722,-0.0117303,-0.0222583,-0.0306243
-0.0857221,-0.0687005,-0.0230011,-0.00139102,0.0140603,0.0223277
0.107312,-0.00471249,0.000812594,0.00408328,-0.0224711,-0.00777197
0.0316093,0.024167,-0.0103429,-0.00534555,-0.0085212,-0.00377226
0.277874,0.137232,0.00159834,-0.00826535,0.00206596,0.0203748
0.718033,0.237325,0.0100761,-0.00216269,0.0393889,-0.00921893
0.0671186,0.0274459,0.0474649,0.0332878,0.027391,-0.0402884
-0.600337,-0.186856,-0.00813643,0.015671,-0.0104563,-0.00698328
-0.440574,-0.166702,-0.0204903,0.00780952,0.0351204,-0.0151725
0.258324,-0.054041,-0.0431773,0.0080345,-0.0172046,0.0172472
0.703965,0.136877,-0.0171046,-0.0216908,0.0167857,0.0382068
0.339534,0.0741301,-0.0159249,-0.00270611,0.0104542,-0.0108941
0.0424521,0.00285319,0.0229572,0.0208404,-0.0172365,-0.0183942
-0.436284,-0.111159,-0.0208338,-0.00602922,0.0323074,-0.0385828
0.0976254,-0.0442512,-0.0117879,0.000352949,-0.00396138,0.00884306
0.0358347,-0.0110922,-0.0133039,-0.000971437,-0.000786901,-0.00181615
0.0656993,0.023072,-0.0112781,0.0030573,-0.0141348,0.00159049
0.229003,0.105269,0.0283338,-0.000528872,0.00256032,0.0183749
0.259857,0.10096,0.0209986,0.016933,-0.00507933,-0.0192047
0.146669,-0.0250543,-0.00852466,0.0184123,0.0271938,-0.0407736
-0.738725,-0.12904,0.00806609,-0.0124766,0.0150927,-0.0338707
-0.231675,-0.0952846,-0.0169649,0.00832912,0.00717586,0.00159073
0.0389646,-0.0164538,-0.0239428,-0.00581825,-0.0125874,-0.00188327
0.0135086,0.0124363,-0.0071299,0.00695238,-0.0099861,0.00220013
0.193593,0.0699784,-0.0100346,0.00294459,0.000377536,0.00462091
0.38861,0.158486,-0.0130828,-0.00304738,0.0138462,-0.0120645
-0.126845,0.0169005,0.0414639,0.0178955,0.00256675,-0.0202644
-0.506448,-0.0832904,0.00329605,0.00041467,0.00687468,0.0109458
-0.0218547,-0.031386,-0.0368937,0.00545615,-0.0112154,0.00161529
0.0328206,-0.0163758,0.0177022,0.00727665,-0.0138125,-0.00269425
0.0136016,0.00712415,0.00892981,1.30236e-05,0.0086565,0.00201774
0.00705998,0.00388068,-0.0156463,-0.00356725,-0.0067091,-0.00627208
-0.00248072,-0.000370431,-0.00710588,0.00765204,-0.00323713,-0.00485682
-0.000260146,-0.0387955,0.0113155,0.00936449,-0.0106919,-0.00311875
-0.0268874,-0.0419753,0.0133711,-0.00169915,-0.00540012,-0.000984192
-0.0194579,-0.0238331,0.00687129,0.000636131,-0.00467068,-0.0016166
-0.0236781,-0.0163407,0.0132161,-0.000533402,-0.00212711,-0.00881195
-0.00344415,-0.0131553,0.011135,0.000547498,-0.00439632,-0.000707626
0.023182,-0.0121114,0.00909221,0.00543845,0.00717741,-0.00146616
-0.00883047,-0.0153042,0.00151202,-0.00146398,0.00780195,-0.00380135
0.00182395,-0.004633,0.000416259,0.00318679,-5.14388e-05,-0.005054
0.00504014,-0.00356103,0.00362546,0.00431886,-0.00974345,-0.00322855
0.0231004,0.00388597,-0.00597124,-0.00117826,6.21676e-05,-0.000269175
-0.0268698,0.0189077,0.0108403,-0.000113726,-0.00587845,0.00843012
0.276979,0.122331,0.0316063,-0.00535649,-0.0141107,0.000805616
-0.0681726,0.000856487,0.0546079,0.0177069,0.0253073,-0.0192275
-0.392417,-0.109002,0.00922902,0.00819317,0.00138885,0.0131372
-0.0495428,-0.0634002,-0.0314507,0.0017857,0.00586063,0.000592232
0.0273635,-0.083696,0.00209156,0.0047093,-0.0113254,-0.00277019
0.00179889,-0.00357213,-0.00386479,-0.00782782,-0.00597227,0.0137558
-0.0259326,0.0434345,-0.0128215,0.00209767,-0.0105381,0.00736725
0.241774,0.139433,0.0228167,-0.00240576,-0.0192308,0.0110908
-0.0512375,-0.00880187,0.0365706,0.0374188,-0.00432897,-0.0342653
-0.490423,-0.0629976,0.00856728,0.00101519,-0.0144689,0.0204957
-0.230568,-0.0504149,-0.0140479,0.0109925,-0.00337845,-0.00352407
-0.0216263,-0.00888953,-0.00071353,0.00243026,-0.0130625,0.00655532
0.0648088,-0.00998462,0.020985,0.0107157,-0.00205082,0.00166011
0.021974,-0.00253842,-0.0155514,-0.00304893,0.00170767,-0.00369024
0.0315617,0.00599741,-0.0166379,0.00195485,-0.00471318,-0.00479639
0.0379954,0.0102769,-0.0102316,0.00475445,-0.00159335,-0.00250626
0.0806838,0.0294884,-0.000578641,-0.0016132,-0.00854176,0.00965476
0.219347,0.138367,0.0141924,-0.00595543,-0.0106764,0.0030086
-0.103473,-0.0311984,0.0343832,0.0204178,-0.00901133,-0.0338882
-0.879052,-0.146995,0.0632139,0.0052219,-0.0294182,-0.00146174
-0.256079,-0.0941665,2.81222e-05,0.00622565,0.0154014,0.00129366
-0.00347246,-0.0441363,0.00919807,0.00451577,-0.0144879,0.00283694
0.0337829,-0.0313599,0.00177757,0.00153935,-0.00345463,0.00128388
0.198739,0.0143837,-0.0352979,-0.00455114,0.00987667,-0.00323009
0.0880674,0.00703262,-0.0110909,-7.54297e-05,0.00394201,-0.00696492
0.172362,0.0636098,0.00381622,-0.00647837,-0.000434518,0.00968385
0.267254,0.107347,0.0102967,0.005463,-0.00974411,0.00478268
-0.00774855,0.0434427,-0.00100317,0.00965399,0.00739622,-0.0138998
-0.615027,-0.0778381,0.0199493,-0.00292361,-0.023038,-0.0186713
-0.0856514,-0.0676111,-0.0112565,0.00740951,0.0112263,-0.000792027
0.0146426,-0.00356414,0.00579758,-0.000413179,-0.00203717,-0.00547266
0.0274046,-0.0142617,0.00271042,0.00373369,0.00329959,-0.00145912
0.0101717,0.000650181,-0.029505,0.000216097,5.28693e-05,-0.00307906
0.0508195,0.0220268,-0.00491767,0.00264901,0.000351787,0.000188828
0.0329302,-0.00139073,0.0346995,0.00256738,-0.0160951,-0.00928426
0.0785202,0.0284131,-0.00592334,-0.0115895,0.00207067,-0.00709772
0.00819353,0.0252613,-0.00616631,-0.00339517,1.63317e-05,0.00367105
0.0336998,0.0198822,-0.0167197,0.00341249,-0.00566506,-0.00435495
0.0187493,0.0177476,-0.0221039,-0.000700802,-0.00111115,-0.00563073
0.0315596,0.0145412,-0.017762,0.00323445,-0.00911725,-0.0035181
-0.00675105,0.00924398,-0.00932366,0.00182596,0.000751436,-0.000466347
0.0156384,-0.0153339,-0.00480639,0.00432238,-0.00576502,-0.00805092
-0.030175,-0.0323876,-0.00272903,0.00844246,-0.00376415,0.000288725
-0.0151614,-0.018485,0.0121928,0.00351217,-0.0191221,-0.00524068
-0.0300285,-0.0205969,0.0207018,-0.00358102,-0.0113264,0.000653267
-0.023587,-0.000293732,0.0270027,-0.000805497,0.00132179,-0.00146961
-0.00892319,0.00389378,-0.0157086,-0.00326467,-0.00657046,-0.000837445
-0.00779791,-0.00463446,-0.00496342,0.00106943,-0.00537145,-0.000892401
-0.0108743,-0.0195487,0.016489,0.00708994,-0.00089252,-0.00438464
0.00298403,-0.0195573,0.0176095,0.00265014,-0.00446284,-0.000534773
-0.00666102,-0.0152947,0.00793115,0.00074476,-0.00582361,0.00188279
-0.018391,-0.00781188,0.00570086,-0.000260353,-0.0106316,0.00047946
-0.0333495,0.0124804,-0.00303506,0.00028193,-0.00557226,0.00619531
-0.00148081,-0.00359383,-0.017767,0.00666782,-0.000949442,-0.00639892
-0.00779205,-0.0185173,-0.00273649,0.000297397,-0.00157034,0.00680804
0.0275104,-0.00675376,0.0197556,0.000615835,-0.00271285,-0.00672746
-0.00994501,0.00177102,-0.008219,-0.0106918,0.0112138,0.00435174
-0.00561956,0.00071858,0.00248784,0.00422996,-0.00770062,0.00491285
0.0104408,-0.01102,0.0165153,0.00573516,-0.00402904,-0.00532305
0.00827345,0.00605986,0.00891696,-0.00881726,-1.66893e-06,-0.00448239
0.0113922,0.00389928,-0.00387997,0.00695238,0.00667709,-0.00167334
-0.0247662,0.00287907,0.00774353,0.00318897,-0.0146237,-0.0021528
0.00931496,0.00925645,0.00462577,-0.00158659,-0.00201839,-0.0021714
0.0177424,0.00708495,-0.0113537,-0.00185949,-0.00369579,-0.00320685
0.000753503,0.0113876,-0.00182995,-0.00416514,0.00239372,0.000767231
-0.00142663,0.002831,-0.00926252,0.00164467,0.000843704,-0.0120664
-0.000361621,0.00176196,-0.00925151,0.00079903,-0.0084247,-0.0012877
0.0103538,0.00711212,0.000369102,0.00637794,-0.00527835,-0.00252438
0.0167043,-0.00144914,-0.00596287,1.9908e-05,-0.00501931,-0.00346589
-0.00245747,-0.00463473,-0.00280653,0.00207156,-0.00497031,-0.00644612
0.00186312,-0.0153006,0.00796187,0.0131429,-0.00880188,0.00424814
-0.0310544,-0.0173786,0.0270841,0.000521272,-0.012327,-0.00822163
-0.0118865,-0.00244419,0.0238544,-0.00271133,-0.00750887,0.000445724
-0.00661104,-0.00459926,0.0153401,-0.0013147,-0.00523043,-0.00429416
0.116181,0.0594657,0.0527801,-0.00699192,0.0035702,0.00566363
0.38464,0.12867,0.0383791,-0.0119072,-0.00263768,0.0115907
0.195792,0.0924262,-0.000557069,-0.00238028,0.00548506,-0.00717032
-0.0301071,-0.0238219,0.00789685,0.0238243,-0.00778258,-0.00153303
-0.18056,-0.0291122,-0.0278899,0.00295186,0.00358164,-0.00504422
-0.0248486,-0.0217107,-0.00384857,0.000570714,-0.0088461,-0.00949872
-0.0408959,-0.0356026,-0.0134333,0.00252217,0.00582409,0.000195026
0.0657173,-0.0559569,-0.0011509,0.00511679,-0.000553131,-0.0141077
0.11682,-0.091253,-0.00500468,0.00228813,0.00188339,0.0150942
0.0859367,-0.0175298,-0.00880416,0.00295645,-0.012677,0.00302494
0.334269,-0.00488054,0.00165891,0.000659496,0.00780928,-0.00936258
-0.0366275,-0.0484194,-0.0111996,-0.00866142,-0.0366532,0.012504
-0.0419408,-0.0195743,-0.0114061,0.00014174,1.15633e-05,0.00629628
0.00707903,0.00388694,-0.0124423,0.000579476,-0.00563449,-0.00665736
0.0029126,0.00391903,0.00356663,-0.00472361,-0.00250632,0.0097416
0.0198791,0.0188346,-0.0114242,-0.00123852,-0.000308037,0.00483501
0.138088,0.0294069,-0.0228023,0.0030525,0.0062201,-0.00643647
-0.0686675,-0.00462749,-0.02763,-0.00723678,-0.0198904,-0.0270315
0.173204,-0.000538743,-0.0278177,0.00017947,-0.0116916,0.0119609
-0.0226687,0.0124802,0.00127806,-0.00286475,-0.0119935,0.00297117
-0.0674311,0.00503432,9.07639e-05,-0.00084722,-0.0120928,-0.000792027
-0.105836,-0.0109718,-0.00635823,-0.00108141,-0.00329685,-0.00157124
-0.016368,-0.00677729,-0.0124612,-0.00182745,-0.00193399,0.000260472
-0.0183222,0.00182028,0.0163236,0.00422186,-0.011577,0.00158548
0.0340299,0.0285232,0.0377157,-0.00448972,0.0026809,-5.14388e-05
0.0479703,0.0392189,0.0515884,0.00247267,0.00841916,-0.0104491
-0.108901,-0.00345468,0.0149503,-0.00486061,-0.0121856,-0.00539541
-0.310555,-0.0279458,-0.0283858,-0.0088141,0.00574803,-0.00231743
-0.0559721,-0.033501,-0.040216,-0.00118667,0.0149156,-0.0193267
0.017763,-0.015337,-0.00586762,0.00320587,-0.00137985,0.00400877
0.0583113,-0.0270991,0.00504542,0.00785568,0.00142145,-0.00272357
-0.0323111,-0.00354918,-0.00613192,0.00970554,-0.00344419,-0.00969744
0.0901718,0.0305202,-0.0176461,0.00297689,-0.00633478,0.00616455
0.0796571,0.0562023,0.00351658,-0.00176445,0.000478625,-0.00425339
0.0776091,0.0434115,0.0185503,0.0029707,-0.00399125,-0.00743878
0.112694,0.0166627,0.00816836,-0.00165537,0.00440812,-0.00831652
-0.0836288,-0.0153082,-0.03403,-0.0125192,0.00586641,-0.00352645
-0.0376778,-0.0174399,-0.0114066,-0.00261408,0.00693387,-0.0107858
0.00180559,-0.00250087,-0.00280582,-0.0124943,0.00309652,0.0013833
-0.0110352,0.00390163,-0.0125126,0.00125462,0.00161743,-0.000151634
-0.0227666,-0.0046373,-0.0135689,0.00228608,0.00696921,-0.00423145
0.0114369,0.016729,0.00244722,0.00199801,-0.00528061,-0.00956857
0.0263415,0.00389791,0.00151721,-0.00116533,0.00518972,-0.00601029
0.0572456,0.0241682,0.000433703,-0.00353402,0.00435162,-0.00109851
0.0496469,0.06365,-0.026561,0.0148933,0.000567436,0.0226257
0.092643,-0.0558923,0.0470282,-0.00618142,-0.0127208,-0.0560536
0.968986,-0.154358,0.316991,0.0465698,-0.0313349,-0.0888745
3.74523,0.223806,0.917924,0.109973,0.0125316,0.0286824
4.35419,1.01995,0.760118,0.0338764,0.0771049,0.131306
2.85877,1.4643,0.0998823,-0.0633056,0.11517,0.041695
0.596843,1.28449,0.14066,-0.0810667,-0.0681711,0.108951
0.518625,1.74292,0.204707,-0.0757943,-0.0120918,0.0454803
0.562268,1.97571,0.176649,0.0189886,0.0573038,-0.0183723
0.524025,1.65749,0.224513,0.0534683,0.0928427,-0.130769
-0.193818,1.01624,0.333896,0.0718436,0.0744583,-0.0820445
-0.172192,0.891352,0.397825,0.0372686,0.104301,-0.140984
-0.348132,0.399526,0.0637954,0.0553532,0.0806139,-0.077073
0.047671,0.211843,-0.192072,-0.0109457,0.0156143,-0.0395851
-0.369057,0.150489,-0.0276233,0.00589472,-0.358984,-0.153864
0.303494,0.78357,0.664212,-0.074408,-0.0131489,0.0470721
-0.116478,0.976087,0.619722,0.0765715,0.0414936,-0.027128
-0.267735,-0.0407364,0.00604778,0.0185572,0.0363034,-0.0677044
0.0881522,-0.0883091,-0.166467,-0.00245976,-0.018239,0.00115144
-0.0562885,-0.052818,-0.0913774,0.00322992,0.000456244,0.0157179
-0.372235,-0.0940824,-0.00254584,0.0125593,-0.0205223,0.0246288
-0.264557,-0.0247229,0.00168101,0.00195754,0.012879,-0.0131528
-0.150695,-0.0195134,-0.0235666,-0.0027163,0.000113606,-0.0133705
-0.140838,-0.00769404,0.0202002,0.00879169,0.00403252,0.00104368
-0.0993207,0.00401207,0.0128002,-0.00283706,-0.00433233,0.00120884
0.00498507,0.0145807,-0.00717923,0.00146759,0.0117086,-0.00659287
0.00387066,0.0316552,-0.0169088,-0.000355721,0.00367886,-0.00660944
-0.0354795,0.0146184,-0.00305681,0.000991285,0.000661284,0.00104243
0.00506175,0.0146032,0.00564201,0.000315666,0.00241008,-0.0023154
-0.0417971,0.0125093,0.00975431,0.00348246,0.000433415,-0.00377619
0.000810328,0.0231536,0.00663967,-0.00393808,0.00487974,0.00267756
-0.0119776,0.00714212,0.00776405,-1.71661e-05,0.00126097,-0.00201982
0.00400899,0.0146078,0.00777484,-0.000805736,-0.00478253,0.00253141
-0.00134854,0.00605906,0.00353585,0.00179547,0.00780365,-0.00310671
-0.0152205,0.00392658,0.000294286,-0.00134385,0.00550139,-0.00170761
-0.0301125,0.00394562,0.00451134,0.000714302,0.00601578,-1.54972e-05
0.0146367,-0.00249728,0.00472105,0.00166035,0.00426242,-0.00320649
0.00712847,0.000697763,-0.00387489,-0.000118375,0.00600526,-0.00101566
-0.0130985,-0.00141772,-0.000731849,0.00188041,-0.00203195,0.00198591
-0.000326592,-0.00463535,-0.00280063,0.00302088,0.00518963,0.000146985
-0.0280448,-0.0078228,-0.00502083,-0.00153881,0.00442359,0.000525475
0.00719292,0.0017846,0.00680279,0.00532794,0.00293377,-0.00344825
-0.0141354,-0.00781641,0.00464724,-0.000307918,0.00458753,-0.00796336
0.009325,0.00391961,0.00679645,0.00356293,0.00215045,0.000897825
0.00820789,0.00283686,-0.00174735,-0.00337994,0.00423396,0.00164646
-0.00985622,0.00072981,0.00674446,-0.000597596,0.000305831,0.000439048
-0.0130538,-0.0142213,0.0078993,0.00148964,0.000913978,-0.00430882
0.00609917,-0.00356307,0.00255967,-0.00131571,0.00134191,-0.00195348
0.00287435,0.00390732,-0.00284299,-0.00225097,0.00516286,0.00323057
0.0104128,-0.00248241,0.0111148,0.00341135,0.00279152,-0.00016129
0.0124784,0.00710892,-0.000691939,0.00132179,0.00250414,-0.000239491
0.0114673,0.0135336,0.00781068,-0.00172526,0.0128347,-0.00911003
-0.0344397,0.00179441,-0.00617672,0.000835538,-0.00543594,-0.00409794
-0.0621434,0.0274476,-0.00858264,-0.00168586,-0.00067535,0.00829232
-0.0120374,0.00285328,-0.00182591,-0.00147259,-0.0105512,0.00258046
0.00714284,0.00390612,-0.00175884,-0.000728488,0.000361681,0.000122428
-0.0600017,0.0103608,-0.00525905,-0.000988364,-0.00281534,-0.0027324
-0.0386808,0.00500676,-0.0030059,-0.0026902,0.0103824,-0.00218952
0.000750682,0.00604752,-0.00179713,-0.00117356,-0.00169227,0.00270367
-0.00776085,0.006058,0.00030707,0.000650644,0.00460401,0.00222778
0.0284806,0.00710244,0.00257355,0.00320381,0.00597164,-0.0023011
0.0175828,0.0209246,-0.0392272,-0.00527287,0.00158921,0.000390828
0.107134,-0.000489652,-0.0291368,0.00056839,0.00974014,-0.00512475
0.0496745,-0.00896805,-0.0154067,-0.000238061,-0.00423107,0.0141023
-0.0259282,-0.0110324,-0.00712956,0.00481117,-0.0106362,0.00589466
0.0412104,-0.0164201,-0.00470626,0.00184202,0.00739869,-0.00516129
0.0464875,-0.00255476,-0.0143915,0.0112592,0.0111919,-0.00974649
0.0764049,0.0348284,-0.00383767,-0.0196434,0.00520816,0.00612915
0.0782116,0.0251203,-0.0571912,0.00734866,-0.0074513,0.015602
-0.0409243,-0.015317,-0.0199781,0.0141224,-0.0116208,0.00569224
-0.0631833,-0.0109938,-0.000857569,0.00132906,0.00294968,-0.00475729
0.00601168,-0.0121321,-0.0112764,-0.0074414,0.00312629,-0.0121804
-0.00364292,-0.116813,-0.0127689,0.00487471,-0.00090012,-0.0400975
-1.18481,-1.0816,-0.0237589,0.108698,-0.115135,-0.145673
-0.735412,-2.02282,-0.514938,0.129144,0.0632724,-0.202893
-1.01425,-2.86782,-1.27551,0.143742,0.119176,-0.143161
-1.31766,-2.83383,-2.12629,0.137632,0.0948756,0.0337264
-1.84292,-1.91811,-2.2015,0.125418,-0.100568,0.182389
-3.00166,-0.603837,-1.87566,0.101232,-0.213952,0.13489
-0.629661,0.291309,-0.856492,0.157274,-0.16514,0.0113938
0.123295,0.150143,-0.0129562,0.128436,0.014316,-0.0846201
-0.0117194,0.0381911,0.0481636,0.0309359,0.0968765,-0.0527619
0.145862,0.0465826,0.0283996,-0.00305349,0.0121982,-0.0354654
-0.00248585,0.0156506,-0.00935056,0.00692725,-0.0171657,-0.0224232
0.094446,-0.060262,-0.00742696,0.00717658,-0.00451839,-0.0231333
-0.277515,-0.165745,-0.0145475,0.0177135,0.0101814,-0.0014531
0.0575742,-0.0857434,0.0652536,0.00630075,-0.0103832,0.0227019
-0.0521976,-0.066444,0.0593774,-0.00975162,-0.00156987,0.00431502
-0.105745,-0.00667245,0.00857147,0.00508499,0.0109813,0.0117196
-0.009114,-0.0452909,-0.0431714,0.000712752,-0.00373876,-0.00217509
0.0107083,-0.0347497,-0.11475,0.00344259,0.0113602,0.00658178
-0.196668,-0.0216598,-0.0493683,0.00640917,-0.0204466,0.0051018
-0.325225,-0.0193177,0.0121032,-0.0215769,-0.0499763,0.0137373
-0.117132,0.149368,0.0502542,-0.00526518,0.0016855,0.0527515
0.0403329,0.270938,0.000906357,0.0244054,-0.0333017,-0.00762546
-0.0427433,0.0723554,0.0243203,0.0117668,-0.0198177,-0.0601385
-0.112237,-0.0259209,-0.00628697,0.0152594,-0.00877666,-0.0231886
-0.628443,-0.197631,-0.0744194,-0.0130742,0.0173867,-0.0121802
0.0876155,-0.104174,-0.076617,-0.00110459,0.000213087,0.0251715
0.00622526,0.0189033,0.0216449,0.0111254,-0.0276417,0.0181937
-0.0939362,0.0414068,0.0189869,-0.00824577,0.00619185,0.015141
-0.0228045,0.0220531,-0.0222907,-0.0146175,0.000777125,-0.00336009
-0.0376085,0.0445262,-0.00539674,0.0113376,-0.00243628,0.00887394
-0.033128,0.0210897,0.0332365,0.00555649,0.00574571,-0.0104926
-0.0207145,-0.0601995,-0.0217495,0.00938797,0.00734603,-0.0255742
-0.180617,-0.0387394,-0.0363783,0.00123161,-0.0125511,0.0132378
0.0540601,0.0466034,0.000274884,-0.00478917,-0.01954,0.00915146
-0.00662823,0.063751,0.00634763,-0.0101762,-0.0110908,0.00961816
0.0401491,0.0305757,-0.00822039,0.0129616,0.0134462,-0.0233973
-0.494932,-0.0705412,-0.0320047,0.00206381,-0.0376367,-0.00184238
0.115491,-0.029382,-0.054561,-0.0088425,0.0168173,0.00580156
0.0313432,-0.0218345,-0.0506502,-0.00408429,-0.00783306,0.00453627
-0.0496643,-0.0121692,-0.0563588,0.0017764,0.00556427,0.00674987
-0.00587363,-0.00896783,-0.0391199,0.00514448,-0.0145611,0.00407851
-0.0194497,-0.0195572,0.00790939,0.0079948,-0.0200106,0.00651097
0.0029164,-0.0142369,0.00582202,0.00112534,0.00248855,0.00131011
0.0104858,-0.00993744,0.0239849,0.00599539,-0.00203204,0.00570881
0.039195,-0.00250087,0.0133609,-0.00944197,0.00338846,0.00524533
0.00929253,0.0156585,0.000309714,0.000793278,-0.00646347,0.00915182
0.000776631,0.0327569,0.000164971,0.00134689,0.00223291,0.00136077
-0.0183129,0.00823242,0.0173482,0.0102086,-0.0136786,-0.0010621
0.00995433,-0.00230371,0.112613,0.00133771,-0.0296972,0.00205928
0.0538319,-0.0300505,0.147149,-0.0073874,-0.00454164,-0.00184673
0.084246,-0.0825495,0.0706751,0.0101932,0.0198908,-0.00562477
0.15209,-0.0666817,0.010992,0.00293022,-1.78814e-06,0.00477362
0.121642,-0.0302133,0.0832963,-0.0208684,-0.0150974,0.00968957
0.55284,0.141317,0.0122128,0.00441676,0.0071944,0.042361
0.396348,0.33479,0.0178529,0.025102,-0.053177,0.0400959
0.0912602,0.0479276,0.16281,0.0208056,-0.0192038,-0.0747446
0.179115,-0.0630734,0.253608,0.0151317,0.0412655,-0.0366163
-0.162097,-0.126972,0.217488,0.030207,0.0408504,-0.0118902
0.220202,-0.308134,0.0192249,-0.0233009,0.0331939,-0.0322186
0.175976,-0.185435,-0.0821701,-0.0165172,0.0150714,0.0408764
0.0250235,0.0486823,-0.0447205,0.0365393,0.00567269,0.0334888
0.0672306,0.0477731,0.064425,-0.0140856,-0.0415686,0.0106509
0.158498,0.104203,-0.00184322,-0.030583,0.0242307,-0.0078361
-0.00838328,0.1287,-0.114812,0.000758052,0.00830019,0.0122533
-0.126736,0.292177,-0.14303,0.0114546,-0.00853151,0.0467576
-0.187857,0.312402,-0.209632,0.00761437,0.00697953,-0.0347524
-0.0165695,0.0508391,-0.0513019,0.0247876,-0.00961804,-0.0664108
0.131269,-0.135946,0.098978,-0.00191876,-0.00545537,-0.0220759
0.000827922,-0.0953937,0.02023,0.00147715,0.0228195,0.0246259
-0.0441119,0.0284777,-0.0224111,0.00123,-0.0053314,0.0123622
-0.0267989,0.0338835,0.0214227,-0.0023309,0.00176734,-0.0141098
-0.0183911,-0.020628,0.00685166,0.00232533,0.0041337,0.00368333
-0.00354183,-0.0420197,-0.00257027,0.00874865,-4.26769e-05,0.0139344
-0.0574189,-0.0706804,0.0775474,0.00188088,-0.013074,0.0104538
0.0825362,-0.160392,0.148101,-0.00890154,-0.024344,-0.025556
1.12993,-0.386984,0.525312,0.0501576,-0.111818,-0.0667191
1.4905,-0.323628,1.48144,0.106924,-0.176073,0.0463369
1.25515,-0.0173319,1.83117,0.0705828,-0.0821394,0.110187
1.56643,0.124837,2.02159,-0.000795066,-0.0420467,0.151328
1.42034,0.467445,1.79445,-0.0167908,0.0929803,0.170051
-0.363456,0.319049,1.07181,-0.051121,0.0723723,0.0274982
-0.211728,0.126946,0.625938,0.0396545,0.108486,-0.160753
0.0147462,-0.10286,0.0320816,-0.0159467,0.0755248,-0.163401
0.883359,0.555216,-0.167662,0.087293,0.0253388,-0.137017
0.38659,0.415297,-0.373758,-0.0980673,0.0482501,-0.14248
0.0707994,0.688835,-0.465394,-0.0171979,-0.0366277,-0.0123923
0.0197457,0.587749,-0.262994,-0.0419254,-0.0048227,-0.017817
0.316909,0.125342,-0.0622896,0.103831,-0.0778076,0.0630808
0.208276,-0.591215,0.0103311,-0.00889313,0.00182855,0.0373287
0.142127,-0.979201,-0.147668,0.00998411,0.0037142,-0.00578976
0.211346,-1.05647,-0.325339,0.026857,-0.0136015,0.0125768
0.393107,-1.29491,-0.377603,0.0312465,0.00407815,0.0252014
0.481674,-1.38359,-0.347848,0.0540693,-0.0113788,0.0234666
0.385956,-1.14881,-0.517476,-0.021262,-0.00612941,-0.0228737
0.088667,-0.503624,-0.043041,-0.0528117,-0.0166177,0.000234187
-0.0213099,0.295462,0.559315,-0.0520274,-0.0018847,0.00277245
-0.0809703,0.411304,0.193997,0.028837,-0.0377139,0.0131896
-0.174092,0.217178,0.318849,0.0366153,0.03967,0.0178929
-0.327421,-0.0913384,0.364082,-0.0116596,-0.021594,0.00675541
0.100767,-0.14039,-0.0122279,-0.0352188,-0.00366676,-0.0229415
0.0811522,-0.279659,-0.250731,0.0440339,-0.0130509,-0.000667989
0.0853938,-0.483975,-0.41393,0.0240771,-0.0205131,0.00382537
0.197801,-0.458896,-0.68399,0.0265551,-0.00253862,0.0040524
-0.529579,-0.227152,0.0680435,-0.179784,0.409244,-0.0692612
0.113355,-0.117504,0.130641,0.0682069,-0.184758,0.0123421
-0.898003,-0.378464,0.122135,0.00720465,-0.0223922,-0.0166949
0.396825,0.0667543,-0.0564703,-0.0208042,0.0437026,0.0271325
0.591284,0.240543,-0.160509,-0.0702936,0.0622553,-0.0789859
1.34861,0.417948,-0.396018,-0.0638426,0.0903949,0.0652224
0.239795,0.0131749,-0.831335,0.0870664,-0.0428411,0.114649
0.124758,0.166448,-1.19496,0.0979877,-0.0318686,0.0754372
0.186476,0.377404,-0.871293,0.0712866,-0.107895,-0.00160921
0.475131,0.347431,-0.172321,0.0398789,-0.238376,0.146869
0.873919,0.318376,-0.121491,0.00180775,-0.00196677,-0.067957
-0.119498,-0.303646,-0.126518,0.0106749,0.143977,-0.180842
0.569493,-0.54459,-0.170457,0.0329936,0.0317262,0.00694686
-0.0881868,-0.578346,-0.211165,0.0495188,-0.0741352,0.0808093
0.0783868,-0.314252,0.00250505,0.0160332,-0.0382383,0.0383562
0.196437,-0.164568,0.130189,-0.000246882,-0.0236611,0.0301437
0.408416,-0.0184244,0.107599,-0.00378978,-0.0107353,0.0738053
-0.00122965,0.181464,0.00754152,-0.00767744,-0.0170547,0.0110803
0.0949114,0.0287347,0.0623128,0.0317226,0.0156213,-0.0151954
-0.0371639,0.027781,0.070371,0.0176918,-0.0420965,0.0259845
-0.0744398,0.0758752,0.0688524,0.0139487,-0.0059669,0.0257691
-0.148189,0.0801363,0.0300839,0.0101399,-0.020089,-0.00209981
-0.10039,0.0501514,0.00802064,0.0174982,0.0217171,-0.00530744
-0.0494077,0.157937,-0.028815,-0.0102782,-0.00528985,0.019241
-0.0429868,0.175029,-0.0256961,0.0164379,-0.0108817,-0.00313771
-0.0897978,0.140909,-0.0106931,0.00585681,-0.0096525,-0.00361967
-0.05052,0.115203,-0.0328148,0.00351417,0.00290966,-0.00642473
-0.0217476,0.134407,-0.0339017,0.00914609,0.0022158,-0.00840843
0.0208491,0.136504,-0.0380293,0.00828904,-0.00621837,-0.00951624
0.0740372,0.151391,-0.0539539,0.0104601,-0.00457603,-0.0167336
0.155018,0.125697,-0.0513464,0.0126624,-0.0180878,0.000513911
0.131549,0.122503,-0.0556877,0.0147532,-0.0127782,-0.00926387
0.00580332,0.109777,-0.0571446,0.0199833,0.00331938,0.0144246
0.149057,0.0603668,-0.151381,-0.0031358,-0.0187702,-0.00149357
0.108797,-0.0153668,-0.106164,0.0138698,-0.0378564,0.0165342
0.00908132,-0.0472028,-0.0294042,0.034897,0.00486517,0.0141664
-0.286254,-0.183744,-0.0488562,0.0198987,-0.0357087,-0.0230928
0.109435,-0.350545,0.0306362,0.047269,0.0138744,-0.0419908
-0.287125,-1.03398,0.594515,0.113192,-0.191287,-0.020216
-0.90918,-0.894737,1.15008,-0.0343707,-0.0174585,0.118772
-1.1392,-0.234477,1.11289,-0.0571915,0.170994,0.170758
0.140384,0.521589,0.316782,0.075709,0.051527,-0.0282182
0.246911,0.104522,0.706664,0.0100731,-0.104381,-0.00451559
-0.336304,-0.345549,0.861254,0.085591,-0.052191,-0.0472044
-1.12396,-0.616621,0.665606,0.0330856,-0.0403336,0.0662411
-1.01111,-0.416699,0.810041,-0.0303044,0.0416522,0.052546
-0.281428,-0.268092,0.587436,-0.00349796,0.0544722,0.0173396
-0.468579,-0.379538,0.304319,0.00463146,0.0396443,0.0142739
-0.510088,-0.204647,0.118188,-0.0501386,0.0588242,0.00461674
-0.136579,-0.166621,0.0338637,0.00496471,0.0348983,-0.0397267
-0.243542,-0.321527,-0.021091,-0.00104606,-0.031473,-0.0195084
-0.128079,-0.086532,0.0226922,-0.00612533,1.0103e-05,0.00773531
0.0535532,0.0533892,0.0929813,-0.013937,0.00424832,-0.0134411
0.131852,0.0777339,-0.000905625,-0.0176939,0.037735,-0.0117788
0.216093,0.107284,-0.170666,0.0102343,0.0176637,0.0101642
0.244837,0.106186,-0.174825,0.00541604,-0.0201172,-0.0190277
0.0994386,0.0637421,-0.0746578,-0.023407,-0.0449544,-0.0125985
0.221802,0.509285,0.0350951,0.0363821,-0.0389184,0.0914668
-0.165218,0.445113,-0.177489,0.0223613,-0.0558193,-0.0691777
-0.627293,0.177489,-0.0941457,-0.00656295,0.0958763,-0.0488476
1.04617,0.278623,-0.178285,0.0160415,0.0560069,-0.0105866
0.299979,0.129252,-0.399142,-0.0150326,0.00173497,0.0191342
0.0171309,0.199815,-0.487204,0.0666557,7.76649e-05,-0.0369077
0.105821,0.0315157,-0.786013,0.0192354,-0.0504986,0.00679064
0.54882,0.104046,-0.656612,0.00465226,-0.0635055,-0.0241624
-0.396797,-0.0638276,-0.549014,0.0313126,-0.000511169,0.0351779
0.845553,0.368847,-0.59311,-0.0128558,0.0183702,-0.0124246
0.910815,0.216457,-0.356819,0.0723835,-0.052482,-0.0646654
2.56916,0.220976,-0.110239,-0.0111606,0.0732642,-0.00925291
-0.623137,-0.171172,0.275678,-0.0729762,-0.0654498,0.0752584
-1.33226,-0.344578,0.375649,0.0752255,0.055034,0.193855
0.626446,0.941462,-0.0452577,0.0536507,-0.018701,-0.0222787
-0.57306,0.223653,0.0617518,0.013095,0.0120243,-0.173066
0.142719,-0.186329,-0.119888,-0.00417256,0.0484467,-0.0128542
0.504803,-0.119372,-0.157431,0.0109207,-0.0215871,0.0435319
-0.0153673,0.0575004,-0.0291062,0.0266824,-0.0930714,0.0698934
-0.0865369,0.0522785,0.00805635,-0.00405449,-0.00180221,-0.0200797
0.0450861,-0.0462265,-0.0666725,0.0257761,0.0318972,-0.0291028
0.0589509,-0.0590501,-0.0633311,0.00874698,-0.0272285,0.00989449
0.099832,-0.00556439,-0.00262353,0.00907683,-0.0151743,0.0148301
-0.000158488,0.026601,0.0224369,0.00116897,-0.00858295,0.0158631
0.0518543,0.000871756,-0.0081879,0.00652206,-0.0132598,-0.00389302
-0.0184074,-0.0385746,0.00569491,0.00205833,-0.0204226,0.00242728
-0.060879,-0.020342,0.0289228,0.00317752,0.00565779,0.0115779
-0.0408299,-0.00332574,-0.00530275,-0.0068689,0.00604993,0.00165057
-0.00241394,-0.0172217,0.00561425,0.0101204,0.00490117,-0.00155401
-0.066231,0.0202394,0.0211625,0.0085144,-0.0145206,0.0272968
-0.0258153,0.0372755,0.00731443,0.0138694,-0.00800425,-0.00421482
-0.0461096,0.0415499,-0.0013398,-0.00350535,-0.0144305,0.0043993
-0.0150514,0.075749,0.0220626,0.00953138,-0.000806212,0.0180743
0.00938866,0.069303,0.0115111,0.00826985,-0.0108712,-0.00206101
0.0180283,0.0191333,0.0353728,0.00930744,-0.000861645,-0.00722778
-0.083566,-0.0289614,-0.0223893,-0.00967699,-0.0176292,0.00782257
-0.0451207,-0.0225559,-0.00839881,0.00306666,-0.0114539,-0.00263572
-0.0611824,-0.0268397,-0.0212512,-0.00749075,-0.00883895,-0.000201344
0.0422633,-0.0012566,-0.00821182,0.0195655,0.014062,-0.0027492
0.0497674,-0.000181924,-0.000709464,0.00157624,-0.016562,0.00692499
0.0113849,-0.00870431,-0.00400326,0.0113661,-0.00957423,0.00490403
0.0178143,-0.0386036,0.00476217,0.0112568,-0.00751811,0.00273561
-0.00345809,-0.0257594,0.00994025,0.00469369,-0.00590605,0.00392437
0.00293948,-0.0428522,0.0122134,0.00137681,-0.00625038,-0.00630158
0.0272495,-0.0792409,-0.0173772,0.00313628,-0.0123087,0.00232881
0.0283914,-0.0162061,-0.0103007,0.0058108,-0.0198663,0.0157933
-0.0663728,-0.0203868,0.00112368,0.00288153,-0.0301328,0.0216728
-0.148166,0.114322,0.0309279,-0.00384104,-0.0204343,0.0474285
-0.178911,0.118662,0.0564285,0.0111975,-0.0121698,-0.0255431
-0.0543744,0.0619245,0.0401671,-0.00678021,0.0188748,-0.0128513
-0.0056087,0.0628828,-0.00132515,0.00175631,0.0128438,-0.0184585
-0.0188287,0.000820046,-0.0682852,-0.000961006,0.0143328,-0.0176656
-0.431104,-1.78817,-1.32007,0.245257,0.350979,-0.339822
-0.900198,-2.45822,-2.9084,0.0662845,0.353045,-0.0583137
-1.55013,-0.0891668,-4.54169,0.165784,0.213208,0.239165
-0.99817,1.78523,-2.03344,0.472218,-0.606187,0.240156
-2.82834,0.606899,-0.440666,0.162804,-0.272423,-0.0894435
0.0380761,0.247932,0.160042,0.145754,0.106206,-0.222643
-0.60286,-0.530972,-0.220881,0.238028,0.0801773,-0.094923
0.810571,-1.48425,0.137839,-0.0385904,-0.0206745,0.092641
1.26797,-0.440284,-0.0851818,-0.213857,-0.128017,0.161667
0.49163,0.435149,-0.0937632,0.0383188,0.110129,-0.0755953
1.20824,-0.935381,-0.407003,0.180672,0.116919,-0.220189
4.86807,-1.00745,0.281358,-0.215181,-0.0017581,0.135039
-0.109337,0.46488,-0.456276,-0.132628,-0.0905867,0.156696
-1.25682,0.203341,-0.243047,0.083352,0.0421469,-0.0293231
0.618248,0.290816,-0.110518,0.00695223,-0.0111003,-0.0113208
1.32477,0.61575,-0.302302,-0.0447933,0.0486187,0.0872488
-0.379513,0.235903,-0.180143,0.075082,-0.0689893,-0.03452
-1.3292,0.362867,-0.0669914,0.0518791,-0.080774,0.021131
-0.846524,0.502105,-0.25734,0.0214229,-0.0235082,0.0223684
-1.49959,0.64819,-0.0769586,0.0619075,0.0908847,0.0936664
-0.127005,-0.0526626,-0.157027,-0.0389842,-0.00588596,-0.032011
-0.589784,-0.116498,-0.20963,0.0149989,-0.0458777,-0.0766152
0.285612,-0.0390132,-0.1139,-0.0519899,0.00600493,0.0359945
-0.622245,-0.0500881,-0.120433,0.0527579,-0.113782,-0.0282278
-0.0200655,-0.121297,-0.264093,0.0368588,-0.0681028,-0.000433564
0.404479,0.0130935,-0.197132,0.010083,0.0318127,-0.0151509
-0.477449,-0.150938,-0.308352,-0.0042901,0.0492755,0.0238213
-0.592607,0.166955,0.00541634,0.0206897,0.0181421,-0.0249287
-0.679671,-1.88067,3.09122,-0.315953,-0.0762638,-0.0371553
0.533855,-2.05428,0.242,-0.555232,0.197307,0.0394754
1.49582,-0.758647,-0.618625,0.0054746,0.141073,0.0477999
0.47502,0.0326398,0.0156275,0.160927,-0.0509331,-0.0258612
-0.0869303,-0.195754,0.499012,0.0599227,-0.0487513,0.053752
-0.0939714,-0.440831,0.234531,-0.0489845,0.0191659,0.0374309
-0.187469,-0.278963,-0.0916776,-0.038227,-0.000208676,-0.0168055
-0.194943,-0.206334,-0.100726,0.00146656,0.00236458,-0.0334908
-0.20932,-0.234247,-0.186073,-0.0221257,0.0383771,-0.00720841
-0.199693,-0.211815,-0.181908,0.0293403,0.000866532,-0.0118004
-0.102741,-0.160313,-0.00985946,0.0143374,-0.000320613,-0.012749
-0.0672376,-0.0790688,0.0399634,-0.00532082,0.0240909,-0.00403309
-0.0170624,0.0480183,0.0446689,-0.00179455,0.00268579,-0.000336766
-0.00202292,0.100376,0.0604133,0.00316608,-0.0103096,0.00878638
-0.0216451,0.0586082,-0.00990734,0.0145133,-0.00129682,0.013685
-0.0697228,-0.0332456,-0.0233799,0.0145133,-0.0056088,-0.00159335
0.0460272,0.0469677,0.0823087,0.00143099,-0.00771314,-0.00886488
0.115874,0.0232788,0.00472666,0.00608939,0.0217704,0.00244057
-0.0354586,-0.133617,0.013725,0.0414401,-0.0135837,-0.00965929
-0.0154524,-0.0265868,0.142388,-0.0229035,-0.0214875,-0.00573361
0.0182094,0.0234583,0.065262,0.00803962,0.0142571,0.0098114
-0.062811,-0.0181453,0.0620212,0.000795007,-0.0190813,0.0139206
-0.0595402,0.0534315,0.0679823,0.00225821,-0.00104523,-0.00355363
0.0391573,0.0649902,0.000963896,0.015258,0.0143488,-0.013778
0.0104391,-0.0759545,0.0220711,0.0157138,-0.00904393,0.00326705
0.0289216,-0.0288662,0.0795295,-0.00784074,0.00427234,-0.00748736
0.0803897,0.0317555,-0.0499516,0.00771035,0.0121293,-0.016112
0.0319574,-0.0695015,0.0562997,0.0106477,-0.0239357,0.0144787
-0.0280015,-0.00866316,0.00225884,0.00560786,0.00833046,0.0116873
0.00708323,0.1045,-0.0207814,-0.0112052,0.00553185,-0.0153259
-0.0138338,0.0352086,0.0511752,0.00941184,-0.0112246,-0.00423753
-0.0248096,-0.0182797,0.002334,0.0173325,0.0132956,0.00162852
0.0308462,0.0436974,0.0384678,-0.00678143,-0.0052458,-0.0111149
0.0721274,0.121554,-0.0142382,-0.00682338,0.00307536,0.00417548
-0.0143281,0.00515927,-0.0287654,0.028944,-0.00478208,0.00883245
-0.00428443,0.107816,0.0379196,0.0104991,-0.00796241,0.00804186
-0.0151859,0.0885277,-0.00152957,0.013468,0.00416857,-0.00419855
-0.0184681,0.0703477,-0.0142437,-0.00408673,-0.003456,-0.00486046
0.00152966,0.0745335,-0.0558676,0.0293699,0.00683814,-0.00885558
-0.0472173,-0.0300198,-0.00194909,0.0131288,-0.0234498,0.0027678
-0.0132808,0.0841886,-0.038891,0.0133211,0.0123317,-0.0107678
0.00616753,0.0201687,0.0118172,-0.000393704,-0.00741678,-0.014453
0.0276846,0.0244862,0.0460577,0.00392801,-0.0100709,0.00425959
-0.0207011,-0.0183264,-0.0232956,0.0135674,0.00302327,0.00910318
-0.038455,-0.0139363,0.0364438,0.00670107,-0.0106973,-0.00834209
0.0148376,0.0565189,0.0329814,-0.0215359,0.00656241,-0.00157022
-0.0165397,0.0489278,-0.0461543,0.00238882,0.00191295,0.0139281
-0.0122119,0.0393305,-0.034321,0.0113767,-0.0141507,-0.00994861
-0.0361304,0.155936,0.053516,-0.0131383,-0.0147747,0.00332212
-0.0119931,0.0554153,0.000833325,0.0273339,0.0116926,-0.00791377
0.0264309,0.0190927,0.0151015,0.00834066,-0.007842,-0.0166513
0.0486345,0.0190253,-0.0136624,0.00428273,0.00580525,0.00243914
-0.037686,-0.0321806,-0.0115144,0.0147365,-0.0103844,0.00233662
0.0266091,0.04264,0.0427322,-0.00406116,0.00109208,-0.0166517
0.0702226,0.037247,0.0311749,-0.00919975,-0.0167205,0.0161347
-0.0313899,0.0425496,-0.034414,0.0286801,-0.0121197,0.0181362
0.161665,0.0221695,0.000629992,0.033814,-0.00313455,0.000567257
-0.0726348,0.143823,-0.169849,-0.0888093,0.0462369,0.0314102
-0.062128,0.382079,-0.750456,-0.108955,0.0733442,0.010349
0.354641,0.386526,-1.08121,-0.0115203,0.0457011,-0.0502822
0.148511,0.216588,-0.6129,0.110865,-0.00690544,0.0471045
-0.00141701,0.101309,-0.0165183,0.137379,-0.0697643,0.0645373
-0.204364,0.0987358,0.25626,0.0436487,-0.0237229,0.0127568
0.0220498,0.0973392,0.166298,0.0155317,-0.0163897,-0.0298895
-0.0272839,0.17418,0.105785,0.0050326,-0.0377126,0.0154347
0.00697417,0.0492426,0.144116,-0.00523993,0.0166918,-0.0192651
0.392264,0.222606,-0.12054,-0.0594795,0.0666615,-0.024376
1.97855,-0.0649029,-0.137311,0.285567,-0.153758,-0.279759
0.613326,0.871017,-0.629291,0.0868237,0.0767702,0.183772
-0.284368,2.13276,-0.297864,-0.0255001,-0.103802,0.197791
-1.63199,0.387163,0.256524,-0.223279,0.119648,-0.138905
-0.16249,0.282946,-0.0631769,-0.0153312,-0.275933,-0.0463622
-0.395275,0.265128,0.0322292,-0.0851694,0.0356993,0.166914
0.102894,0.170934,0.137275,-0.13413,-0.372876,-0.00567222
0.0725965,-0.61036,0.486268,0.142934,-0.00455445,-0.148045
0.656757,-1.4142,0.42422,-0.010494,0.064984,-0.0411779
1.20497,-1.48112,0.876523,0.0906907,0.0864713,0.0759867
0.336538,-1.02807,1.18553,0.0376996,-0.0840304,-0.154737
0.566282,-0.259689,0.870483,-0.0376488,0.00228423,0.0181818
0.449984,0.358122,0.432254,-0.0605923,0.0423977,0.107362
0.647484,0.579926,0.297998,0.0440882,0.0174412,0.180308
-0.865234,0.341162,0.548173,0.0168069,0.0490026,0.0372086
-0.803431,0.294121,0.552985,-0.00746134,-0.0517552,-0.0268571
-0.396186,0.337356,0.407851,-0.00561973,-0.0475572,-0.0910484
-0.257702,-0.0181032,0.612611,0.110506,-0.0396319,-0.0497221
-0.710355,-0.28792,0.668225,0.0331135,0.0635781,-0.0419351
0.0299089,-0.0478017,0.246332,-0.0778223,0.0913447,-0.0175139
0.177086,-0.116096,-0.259116,-0.0419119,0.0858262,0.00594312
0.516031,-0.0653629,-0.42272,-0.0294228,0.0517965,0.0186895
-0.186821,0.322977,-0.393676,-0.0444262,-0.0391743,-0.0107137
0.555438,0.55482,-0.659514,-0.0346207,-0.0316145,0.0519931
0.260577,0.454107,-0.959129,0.0792496,0.0996734,0.0410157
-0.447443,0.346618,-1.03694,0.0240646,0.0167726,-0.0233081
-0.222656,1.33896,-0.953855,-0.127967,0.0595457,0.0630895
-1.16561,1.66329,-0.97979,0.0220784,-0.214957,0.116167
2.59179,2.29076,0.281364,-0.0290168,0.0317403,-0.0265402
-1.38393,1.4315,1.37469,0.126648,-0.36003,0.132704
0.605991,1.04342,2.04816,0.101578,0.0893819,0.263008
-0.0833565,0.467028,1.39329,0.447948,-0.0451652,-0.0836181
-3.58307,-0.891401,-0.54276,0.0870556,0.276266,0.0848349
1.19141,-0.467633,0.123052,-0.140582,-0.15683,-0.00365752
-0.555163,-0.0286124,0.582717,-0.031321,0.026383,0.0388098
0.169457,0.348635,0.383185,0.0970054,-0.0392693,0.0810824
-0.758934,-0.0540331,0.00729275,0.0148439,0.0212907,-0.0113257
-0.33142,0.0471777,0.0392249,-0.0690944,0.0746307,-0.0322723
0.0319424,0.0672039,0.0415218,0.0122271,-0.0365675,0.00704992
-0.129483,0.0169724,-0.0431649,0.0143715,-0.0067904,0.0126761
-0.0838109,0.198462,-0.0837025,-0.0382594,0.0271032,-0.00936478
0.16344,0.229263,-0.0776328,-0.00477433,0.0293197,-0.0226371
0.138018,0.185537,-0.0485976,0.0225463,-0.00884181,0.00427437
-0.0989233,0.0638434,-0.104256,-4.17233e-06,-0.0470488,0.016908
-0.130626,0.117345,-0.0651875,0.011328,-0.0204221,0.0172271
-0.157023,0.0373319,-0.0177538,0.0444392,-0.0161712,-0.0151145
-0.2154,-0.0832443,0.0308857,0.0176347,0.00518644,-0.00613719
-0.103413,-0.0747528,0.0483452,0.00618273,-0.00499904,0.0103922
-0.314344,0.0129973,0.0469864,0.0167614,-0.0595088,0.0436027
-0.0290133,0.0411069,0.363067,0.0322033,0.029813,-0.0684245
0.0308769,-0.0737766,0.0541853,-0.0450652,0.0466172,0.0174468
0.0909261,-0.0526615,-0.0621876,-0.0122112,0.014187,0.0113719
0.145163,0.0305742,-0.0870991,0.00210142,0.00176096,-0.0237168
0.269611,0.0143961,-0.121787,-0.0325212,0.0560225,-0.0516344
0.341807,0.0815522,-0.1711,-0.00467128,0.023612,0.0371626
0.443517,0.388145,-0.117148,-0.0133111,0.0184464,0.00446874
0.612113,0.668983,-0.101242,-0.0640525,0.0683627,-0.0337836
1.14885,0.836935,-0.340723,-0.0602471,0.0513304,0.0486821
1.24397,0.813452,-0.289998,0.0512558,-0.0252606,0.0516779
0.570718,0.584374,-0.245089,0.0347601,-0.0643898,0.0370328
0.580098,0.45721,-0.268806,-0.000984132,-0.00580144,0.0257891
0.385983,0.298163,-0.286664,0.0593644,-0.0204957,0.0575167
0.0130683,0.00398144,-0.079942,0.0910183,-0.0912377,0.0545886
-0.651462,-0.377462,0.190362,0.0953702,-0.0924321,0.0394731
-1.20008,-0.732668,0.241895,0.0342929,0.00799489,0.00518727
-0.685374,-0.966938,0.274188,0.0535756,0.00278556,0.0312736
-1.22188,-1.19388,0.379428,0.0365968,-0.0351413,0.0702559
-1.1284,-1.18014,0.33161,-0.0221787,0.020801,0.0474821
-0.976818,-1.00609,0.362033,-0.0560404,0.0446508,0.016387
-0.774296,-0.692527,0.168438,-0.1065,0.112012,-0.0134804
0.133388,-0.398785,-0.0576467,-0.0647177,0.114884,-0.0466319
0.42561,-0.120167,-0.0369922,-0.0304481,0.0407873,0.0121987
0.402373,0.252655,-0.0362895,-0.0543373,-0.02528,0.0537002
0.372374,0.461967,-0.0826368,0.0202904,8.04663e-05,0.0396092
0.282858,0.439601,-0.0828263,0.0134007,-0.0351971,0.00633514
0.0904793,0.342695,0.00576287,0.0242767,-0.0346364,0.0265602
0.139242,0.311611,-0.0333846,0.0195974,-0.00720263,-0.000929773
-0.047915,0.156996,0.0427768,0.0126843,0.00138229,0.0126374
-0.0304789,0.0403681,-0.0600402,0.0444866,0.0277175,-0.0464214
0.0456747,-0.13074,-0.138779,-0.0168352,0.0102745,-0.0347258
0.0314994,-0.228015,-0.184146,0.0348166,0.00393897,-0.0286468
0.0981961,-0.372688,-0.421223,0.10748,-0.0280139,0.0100347
-0.422146,-0.181983,-0.322903,0.0561698,-0.137315,0.169275
-0.805984,-0.366669,0.185436,-0.237383,0.20591,-0.177364
1.19604,0.129502,0.129884,-0.121612,0.0815786,0.0829476
0.892601,0.583716,0.127939,0.0744725,-0.0519567,0.0805213
-0.337002,0.316566,0.150711,0.0812919,-0.0869817,0.048653
-0.661422,0.145021,0.25959,-0.00798118,-0.0170996,0.0231874
-0.41789,0.394932,0.336878,-0.031291,0.00832075,0.0118291
-0.106901,0.446989,0.308858,-0.0268521,0.0468447,-0.0398482
0.111153,0.377293,0.252429,-0.0446556,0.0226923,-0.0300661
0.27608,0.419511,0.0326732,-0.016748,0.0101737,0.0119117
0.229556,0.183305,-0.0642697,0.0393643,-0.0281495,0.0308416
-0.444432,0.364452,-0.000654717,-0.0141515,0.0232599,0.00794953
-0.137913,0.227721,0.131732,0.0298072,0.0363894,-0.0904403
0.0582556,-0.123021,0.00438853,0.0398961,0.0182921,-6.10352e-05
-0.101588,-0.0737755,-0.00294034,-0.0117713,-0.0763053,0.0614197
-0.00408301,0.0769039,0.0744429,0.000695288,-0.0301485,0.0139387
-0.161941,0.0524097,0.0494389,0.00404203,0.0116694,0.0117267
-0.296537,-0.0138074,-0.00192078,-0.0112856,0.0112662,0.0088315
0.0954314,0.127906,-0.0377015,-0.0019815,0.0215901,0.0211
0.106238,0.0211371,-0.00277581,0.0224528,-0.0149255,-0.00366318
0.116081,-0.0471505,0.0457838,0.0209478,-0.014698,-0.0023886
0.10987,-0.118652,0.0825529,0.0254166,-0.00848186,-0.00981987
0.117995,-0.291796,0.0313492,-0.00117022,-0.00776196,0.00205648
0.0155743,-0.397493,0.0188305,0.0241675,0.00404459,0.0254662
-0.0783272,-0.513878,0.00641251,0.0183803,-0.0120292,-0.0201519
-0.0724352,-0.506553,-0.0780202,-0.0307031,0.0134849,-0.0166997
0.193439,-0.25698,-0.18442,-0.0517374,0.0345065,0.000532508
0.40601,-0.0629133,-0.290658,-0.037217,0.0221574,-0.00406903
0.643674,0.141987,-0.299645,0.0232961,0.0256565,0.00728762
0.462154,-0.0712838,-0.166454,0.0605463,-0.0975963,0.0572643
-0.221208,-0.264948,-0.0331308,0.0191334,-0.0784071,0.0584654
-0.56949,-0.12473,-0.0225242,0.00237435,0.0253908,0.0134484
0.00442749,-0.0721876,-0.270734,-0.0314217,0.106578,-0.0271621
0.395867,-0.073435,-0.204086,0.0278399,-0.0226776,0.0528367
0.194633,-0.0302086,-0.00531622,0.04494,-0.0645188,0.0629053
-0.337174,-0.273042,0.174834,0.0432049,-0.0469422,0.00116277
-0.463061,-0.357812,0.512541,0.00511909,0.0183405,0.00107467
0.406758,-0.215424,-0.151838,-0.0399237,0.0750421,0.0472869
-0.566764,-0.573135,0.117155,0.0811189,-0.138567,0.0154564
-1.29486,-0.413237,0.222373,-0.0692755,0.0320908,0.00212955
-0.00667796,-0.0756494,0.188681,-0.0515218,0.142503,-0.0108137
-0.00550716,0.125928,0.0100171,0.011932,-0.0110086,0.0340571
0.292424,0.15976,-0.0617428,-0.0109701,0.0012368,-0.0121812
0.0704633,0.135577,0.0625908,0.00428927,-0.0334135,0.00813961
-0.150187,0.143194,0.0467561,-0.0123954,0.0155678,0.0051918
0.203304,0.099062,0.00776523,0.0029549,0.00665468,-0.00985992
-0.170652,0.0619743,0.01729,0.0241348,-0.040933,0.0248674
-0.112967,0.0737219,0.0409366,0.0062958,-0.00430423,-0.00610936
-0.161985,0.0150158,0.0454066,-0.000436246,-0.00240886,0.000480413
-0.0671014,0.0405921,0.0520076,-0.00288016,0.0212731,-0.0191671
-0.00694565,0.0702825,-0.047325,-0.0342981,0.0364674,-0.0100069
0.312275,0.216236,-0.132552,-0.027447,0.0454179,-0.00479078
0.205413,0.210886,-0.184203,0.0194315,-0.00102508,0.00606406
0.227459,0.163779,-0.235101,-0.0114437,0.0075646,-0.00424385
0.25929,0.137016,-0.25511,0.0149273,0.0197148,-0.00644827
0.186321,0.0656721,-0.156621,0.0267082,-0.0258443,0.010999
0.144911,0.0892439,-0.134494,-0.000204444,-0.0123258,0.0316055
0.126287,0.178067,-0.0496638,0.0235586,-0.039278,0.0402461
0.0319907,0.0362455,0.0524058,0.0469992,-0.0109723,-0.017904
-0.132879,-0.246578,0.12521,0.0209172,-0.0402547,0.00778711
0.0264383,-0.247915,0.0403383,-0.0381904,0.0494047,-0.0331647
0.563512,-0.22939,-0.129792,-0.030198,0.0359558,-0.0105788
0.191179,-0.19903,-0.0330851,0.00700921,-0.00461608,-0.00263822
0.114581,-0.0739775,-0.0245656,-0.0259857,0.0420085,-0.0135667
0.28071,0.00811018,-0.0469144,-0.0151299,-0.00110316,0.0119017
0.112482,0.055267,-0.0307553,0.00748599,-0.00777763,0.0170053
-0.138918,0.00634424,-0.0164201,0.00272352,-0.0401536,0.0231552
-0.107764,0.0662048,0.0207049,-0.00780821,0.00750583,-0.00319022
-0.161948,0.0759048,0.0460803,-0.00649452,-0.0259262,-0.000792861
-0.0744766,0.08014,0.0624071,0.0155933,-0.0178778,-0.0194032
-0.430344,-0.0584327,0.0769323,0.0102543,-0.0349013,0.0235195
-0.762287,-0.064445,0.160135,0.0185005,-0.0128341,-0.0237349
-0.318556,-0.00482994,0.235133,-0.0330011,0.0350561,-0.0364605
0.113685,0.0577533,0.170103,-0.0171127,-0.00375801,-0.00251842
-0.159416,0.0728153,0.113424,0.0111356,-0.0364804,0.0170298
-0.221716,0.0203827,0.0344641,-0.0072329,0.0361568,-0.00425148
-0.027105,-0.0781344,-0.0197276,0.0163855,-0.0180943,-0.0223233
-0.0153111,-0.18813,0.00239968,0.0147039,-0.0109678,-0.0191514
-0.118827,-0.174214,-0.0258588,-0.00499141,0.0152059,0.0110331
0.0409173,-0.152998,-0.0414259,0.0163113,0.0276726,-0.00461572
0.0134379,-0.20311,0.000466798,-0.00962764,0.00983679,0.00724614
0.0431433,-0.155108,-0.0253758,-0.0074811,0.0061816,0.0304853
-0.151641,-0.135676,0.00688956,0.0153564,-0.0300515,0.0246963
-0.0704739,-0.106846,0.0358546,-0.00830412,0.0115771,0.00892836
0.0477856,-0.0204273,0.0261211,-0.000217378,0.018209,0.00991112
-0.0673226,-0.0310305,0.0214853,0.00706112,-0.0254355,0.0244201
-0.0597941,0.00636603,0.0298176,-0.00281096,0.00606543,0.00354767
-0.0620838,0.0340897,0.000782534,-0.0101568,-0.0104336,-0.00395012
0.088004,0.0755877,-0.0277757,-0.00673783,0.000313044,-0.00134605
0.029407,0.0638835,-0.0257786,0.00248146,-0.0149528,-0.00421548
0.0996542,0.0744891,-0.0394754,-0.00458729,0.0198242,-0.0107645
0.0324879,0.0884128,-0.0472962,-0.000798643,0.00741416,0.00362301
0.0901059,0.132183,-0.0377487,-0.00229526,0.0352923,0.00297403
0.0559141,0.211216,-0.0608273,-0.025445,0.0142751,0.011166
0.103753,0.24746,-0.0822508,0.0042448,0.00183898,-0.00190139
0.169067,0.266729,-0.0308456,0.00985539,-0.0147164,-0.0109032
0.0935725,0.237995,-0.00209454,0.00824189,-0.00464392,-0.00107044
0.0798907,0.24553,0.0255867,0.00303,-0.00595611,0.00275087
0.0532048,0.150482,0.0261004,0.0141283,-0.00283152,-0.024653
0.0167649,0.148311,-0.00927965,-0.0100075,0.00100356,-0.0140663
0.031663,0.045763,-0.00321784,0.0204158,-0.037177,-0.00686532
-0.131973,0.0631074,0.0708489,-0.00359106,-0.0336785,0.00972867
-0.210467,0.146576,0.12237,-0.0283826,-0.00212419,-0.00618339
0.190607,0.0990981,0.0226748,0.0135671,0.0868273,-0.0440981
0.429194,-0.0741313,0.0236252,0.024022,0.0451431,-0.0376867
-0.435243,-0.320596,-0.184225,0.0122079,-0.0539381,0.0754958
0.0955247,-0.287534,0.0152106,0.0364115,-0.0424994,8.2016e-05
-0.161476,-0.425936,0.170071,0.0188261,-0.0922418,0.0338074
-0.608438,-0.655377,0.104711,0.000948727,-0.0532158,0.0118552
-0.885894,-0.403233,0.0112173,-0.0751325,0.049819,0.0392376
-0.0833258,-0.122876,0.0262946,-0.0352461,0.0473254,-0.00480604
0.0438319,0.0213192,0.073916,0.000562906,0.00715095,-0.0216543
-0.279827,0.0996057,0.109592,-0.0300831,-0.00026226,-0.0167613
0.0169791,0.244496,0.0178784,-0.0500308,0.0566064,-0.00785112
0.151118,0.31592,-0.00772592,0.00795949,-0.0428219,0.0254869
-0.885975,0.209353,0.29893,0.0130129,-0.130269,0.0251603
0.344097,0.560703,0.16877,-0.0132402,0.176612,-0.00824678
0.450389,0.237376,-0.201623,0.0304228,-0.0530224,0.000462532
0.801248,0.18669,-0.323918,0.00625867,0.0678141,-0.0221735
1.29413,0.371268,-0.237795,-0.0308275,0.00775713,0.0217725
0.723339,0.393156,-0.185584,-0.00246412,-0.0387644,0.0424507
0.370444,0.736512,-0.0737389,-0.0488163,0.0233426,0.0190077
0.403836,0.883983,-0.0264919,-0.00190431,0.0281374,0.0254337
0.373733,0.780326,-0.0622569,-0.028884,-0.0026654,-0.0260001
0.314564,0.686218,-0.148414,0.0268683,0.000521302,0.00677621
0.477386,0.699921,-0.183152,-0.0200833,0.0149567,-0.0157624
0.426047,0.411845,-0.0115935,0.0716947,-0.0269851,0.000327468
0.804892,0.360465,0.0916613,0.01223,0.0213227,0.0267311
0.328461,0.119404,0.0882359,0.0672998,-0.0974594,0.0164082
-0.608145,-0.187179,0.289723,0.00833154,0.0268158,-0.0309798
-0.109685,-0.199984,-0.0983138,-0.0704518,0.0928515,-0.0228199
0.28968,-0.0177101,-0.148218,0.00366664,0.0107969,0.00676107
-0.169289,-0.263691,0.096335,0.0656546,-0.0152102,0.0223297
0.101713,-0.548957,0.182538,0.0368583,-0.034347,0.0438
-0.730426,-0.913589,0.219182,0.0277188,-0.0208298,-0.0172347
-0.905248,-1.25343,0.0583268,0.031171,-0.0429788,0.0358834
-1.11004,-0.983878,0.176546,-0.0114786,-0.0336254,0.0652333
-1.43996,-0.88953,0.232397,-0.0104288,-0.0296967,0.016717
-0.462898,-0.660954,0.0326364,-0.0245348,0.107106,0.0211661
-0.0156384,-0.485139,-0.0255942,-0.0110498,0.0438235,0.0117829
2.08855,-0.996551,-0.188557,0.158563,0.0713988,-0.161085
-0.995658,-2.71421,0.928631,0.157123,-0.278833,-0.22631
-4.08759,-3.51633,-2.17731,-0.0328213,0.574007,-0.0164763
-0.176856,-2.20559,-4.73545,0.156216,0.349547,0.215093
-0.471768,-0.640357,-5.90597,0.390771,0.20383,0.0376524
-1.08557,0.23392,-5.28355,0.244204,-0.2365,0.134537
-3.03797,0.441951,-3.22904,0.298251,-0.144096,0.174457
-2.35951,0.260948,-0.764683,0.255335,-0.0106066,-0.0146135
-0.874663,-0.0925856,-0.0986687,0.0186018,0.0152311,0.0553862
-1.02747,0.009175,-0.00373889,0.00519282,0.0497237,-0.0692638
0.361305,-0.165841,0.0827271,-0.0232065,-0.0419199,-0.0447339
-0.650064,0.0466471,0.207915,0.0111954,-0.0449433,0.071838
-0.535903,0.0548385,0.0544319,0.00626326,-0.059339,0.000413656
0.158753,-0.254367,0.0729287,-0.0253967,0.0666526,-0.184195
2.79189,0.106677,-0.626868,-0.52026,-0.0378311,-0.213169
-0.116797,1.52558,-1.08609,-0.267274,0.00798327,0.413126
-2.81428,1.14862,0.257842,0.249447,-0.074068,0.213183
-2.78259,0.407168,0.813019,-0.11575,-0.129072,0.149641
0.256909,0.770913,0.00254288,-0.00452143,0.380566,-0.166096
0.716752,1.13125,-0.818643,0.26813,0.0563383,0.165573
1.43978,0.645816,-1.38548,0.326551,0.0551695,0.232758
1.96692,0.713999,-1.26107,0.231222,0.0280951,0.120863
3.76502,1.25493,-0.855043,-0.131859,0.299733,0.0494987
1.48175,1.80718,-1.24113,0.00428849,-0.368285,0.23388
0.541346,0.407551,0.0262621,0.00503883,0.303094,-0.195622
0.674248,0.409057,0.334463,0.155138,-0.0327308,0.0256589
-1.73761,-0.718793,1.22383,0.340919,-0.249343,-0.0892981
-2.43725,-2.17295,1.95612,0.252981,-0.0624104,0.139538
-3.46379,-2.75773,2.46571,0.15716,-0.0484284,0.184107
-0.786652,-2.18346,2.15576,-0.0841089,0.0991224,0.201238
-0.540599,-1.74822,1.92521,-0.128308,-0.126821,0.0725625
-0.201031,-2.02898,2.78626,0.0326158,0.0292183,-0.0605993
-0.509745,-1.7888,3.16819,0.0091995,-0.0383665,-0.0285468
1.96212,-1.88883,2.62357,-0.0949361,-0.0873874,-0.121587
3.05796,-0.746397,2.78374,-0.227198,-0.244479,0.0816305
1.81308,1.70955,2.32295,-0.0825274,0.154022,0.166294
2.58627,2.22178,1.14616,0.0955514,-0.00041759,0.0849912
0.73698,1.30612,0.231653,0.0788683,0.0932165,0.0156642
0.119717,1.52909,-0.200552,-0.029981,0.104517,0.0496107
0.58779,1.61863,2.33819,-0.0961599,-1.01748,0.338487
-1.89855,1.73967,2.06312,0.13275,0.505733,0.0020408
-0.0992195,0.0535221,-0.509133,0.186962,0.208761,-0.369426
0.46703,-0.984148,-0.51631,-0.00715274,-0.169852,0.0938339
-0.00504451,0.131404,0.0869093,-0.0620695,-0.00316954,0.11148
0.221995,0.573738,0.239815,0.0141231,-0.0287769,-0.00376987
-0.330624,-0.258671,-0.156454,0.0533451,0.0632091,-0.103899
0.0494088,-0.455893,-0.375989,-0.0353466,0.0231238,-0.00890607
0.215929,-0.0668526,-0.182363,-0.00438333,-0.0417386,0.082077
-0.0957184,0.307667,0.0533749,0.000772476,-0.0376397,0.0588907
-0.0703023,0.275562,0.0301713,-0.000873089,0.0315807,-0.0321118
-0.00774278,0.121628,-0.00706036,0.00918502,-0.0185581,0.00607896
-0.0427775,0.172957,0.00957005,-0.010222,0.0167584,-0.0107609
-0.0960183,0.167667,0.0158166,-0.00428802,-0.0138678,0.00560617
0.406582,0.719681,0.0910482,-0.113543,0.0614879,0.012184
2.49937,1.0393,-0.0944409,-0.0406512,0.0208538,-0.0360755
0.646762,0.159665,0.0368135,0.0348184,-0.013043,0.0215772
-1.58137,-0.610574,0.258906,0.0543657,-0.118662,0.177118
-1.16855,0.509621,0.236096,-0.00783682,0.0353772,-0.115179
0.141209,0.424329,0.285358,-0.0433028,0.120743,-0.0147082
0.107978,-0.150621,0.125489,0.0171669,0.0190663,-0.0800982
0.36577,-0.144426,0.114662,0.0208454,-0.0321699,0.0482585
-0.205985,-0.141733,0.185156,0.0143826,-0.046751,0.0401976
-0.584784,-0.332784,0.111254,-0.00693387,0.0396227,-0.0302249
-0.113037,-0.286229,0.0614357,-0.0212811,0.0474122,-0.0291539
0.0243313,-0.238294,0.043474,-0.00789809,0.00711364,0.0207081
-0.0140997,-0.203041,0.0281434,0.0247545,0.00775099,-0.0150374
0.0442179,-0.252298,-0.0151261,0.00574028,0.000723779,-0.0212941
0.0974741,-0.177581,-0.0250276,-0.0111873,0.010594,-0.00518382
0.181466,-0.0869149,-0.0637644,-0.00559402,0.0055927,0.013402
0.145131,-0.0591503,-0.0843807,0.00237334,-0.0133439,0.0179994
0.00557811,-0.0718527,-0.0784102,-0.000994503,-0.0152727,0.00640333
-0.0145145,-0.0995629,-0.0505244,0.00624192,-0.00711912,-0.00389838
-0.015389,-0.0749405,-0.0207728,-0.00119251,-0.00756252,0.01442
-0.14971,-0.0631097,-0.0331065,-5.25117e-05,0.00251859,-0.00299203
0.0131845,-0.122014,-0.0492073,-0.00446886,0.00517988,-0.014199
-0.0594901,-0.0985254,-0.0880973,-0.0100651,-0.00470978,0.0182159
-0.0947911,-0.15835,-0.106005,0.015503,0.0228236,-0.0193313
0.116965,-0.0881009,-0.15909,-0.0186026,-0.0198202,-0.00242984
-0.143671,0.0980549,-0.106781,0.0122227,-0.0825786,0.0572054
0.254681,0.0923709,-0.130896,0.00823969,0.0571073,-0.0345994
0.344305,0.0496171,-0.106778,-0.0018239,0.0187271,0.00967145
0.378772,0.0347465,-0.0435134,0.00981629,-0.00474727,0.0179875
0.454053,0.0947038,0.0674974,-0.0196555,-0.0461429,-0.000357985
1.07879,0.0967808,0.303814,0.0134438,-0.0331362,0.0421596
-0.318124,0.09538,0.120161,0.0297329,-0.0609008,0.0280598
0.0273729,0.0147838,-0.00516775,-0.0190647,0.0723982,-0.0348941
0.15936,-0.0206012,-0.0247445,0.00982082,-0.00498056,0.0210935
-0.145073,0.0096229,0.0230675,0.0100523,-0.0229973,0.00802112
0.0913436,0.0542646,-0.00197878,-0.0059703,0.0231766,0.000352979
0.289345,0.0252245,-0.0298973,-0.000913382,0.0114633,-0.0116028
0.0325956,0.0734914,-0.0279665,0.0328563,0.0312482,-0.00541568
-0.0931545,0.0383344,-0.0282074,-0.0064438,0.0129197,-0.0371547
-0.065284,-0.0246516,0.00542627,0.00135994,-0.00244153,-0.0131071
0.105536,-0.057791,0.0650456,-0.00833654,0.00960869,-0.0234152
-0.128046,-0.0213703,0.0222656,-0.00293577,-0.0057829,0.0213624
0.0254021,-0.00973286,0.0238322,0.00514883,0.0222724,-0.00116217
-0.0792058,-0.0235933,-0.00638612,0.00233501,-0.00768661,-0.00313842
-0.25825,-0.0159926,-0.013517,0.00341147,-0.00655413,-0.00219131
0.00163865,0.0243687,-0.0331069,-0.00931013,0.00446808,-0.00429487
0.158303,0.0744577,-0.0317755,0.00101423,-0.0201865,-0.000687599
0.398091,0.0326373,-0.0199227,-0.00301534,0.00817299,-0.0340112
0.125343,-0.0130762,-0.0120986,0.00154817,-0.0175749,0.0152171
0.00807561,-0.0546587,-0.0186794,-0.00166589,0.00435811,0.00194883
0.00605473,-0.000154627,-0.00515137,-0.0023697,-0.0104212,0.00372231
-0.0418131,-0.0300006,0.0108907,0.00365734,-0.00816041,-0.00677645
0.0263493,-0.0289924,0.00579599,-0.00286633,0.0029763,0.0134279
-0.0278957,0.0244781,0.0170001,0.00128859,-0.00173777,-0.005463
-0.00345828,0.012691,0.00648351,-0.0013051,0.00173742,-0.000802755
-0.0855198,-0.00540776,0.00522326,0.00376481,0.00915182,-0.015547
0.0625274,0.037184,-0.008387,-0.00720191,0.00248736,-0.00324667
-0.0387326,0.0319094,-0.0140737,0.000946045,-0.0195778,0.00686586
-0.226392,0.0352172,-0.0361664,-0.00908905,0.00874871,-0.0107273
0.0684203,0.0722791,-0.0951377,0.00642782,-0.00180489,0.0181507
0.109922,0.0156255,-0.0988874,-0.0213343,-0.000950933,-0.0150999
0.459884,-0.0218822,-0.0161306,0.00712991,0.0542917,0.033042
0.146724,0.0253783,-0.0037215,-0.00282294,0.0258337,-0.0268523
0.170749,-0.12217,-0.071055,0.0172052,0.0462418,-0.0604306
0.151409,-0.123271,-0.0978301,0.0177011,0.0309095,0.0578685
-0.0808211,-0.0493852,-0.0959757,0.00883138,-0.015764,-0.00915414
0.12153,-0.160643,-0.101973,-0.0109372,0.0438054,-0.024766
0.320194,0.0102328,-0.0371621,0.00393254,0.0056448,0.00522208
0.166914,-0.00776274,-0.00984028,0.00227016,0.0029332,-0.0122313
0.0582257,-0.0418585,-0.00789191,0.00318831,-0.00456911,-0.00286055
-0.206076,-0.142071,-0.00823107,0.016716,-0.00729477,-0.0119548
-0.172986,-0.17946,0.00495654,-0.000108659,-0.0104271,0.00376344
0.0425039,-0.0823565,0.039325,-0.00815684,0.00138885,0.0143293
0.0125688,-0.0652743,0.0209376,0.00314832,0.00498778,0.00375146
-0.0310087,0.0127569,0.0320219,0.0073573,-0.00297487,0.0161157
0.0156568,0.0372231,-0.00642622,-0.00488085,-0.00301385,-0.00984919
-0.165689,-0.016103,-0.036676,-0.00740522,-0.0270203,0.00516456
0.0957773,0.129074,0.019991,0.0110419,0.12715,-0.0211811
0.0916275,0.0212384,0.0484531,0.00441515,0.0211345,-0.0229844
-0.0632298,-0.0887572,-0.00163084,-0.00850672,-0.00875074,0.0159638
-0.0130833,0.031913,-0.00115706,0.00952083,-0.0104117,0.0207939
-0.0214819,0.0276841,0.0202073,-0.00366998,-0.00157136,-0.00831687
-0.0557631,0.00415863,-0.00861557,0.00176221,-0.00408769,-0.00579864
-0.118724,-0.0577683,-0.0191339,-0.00373679,-0.0146317,-0.00457954
-0.0941824,-0.00117,-0.0183417,-0.00405383,0.00646943,-0.0118823
0.018946,0.0180232,0.0108054,0.00295997,0.000614166,-0.00789076
0.015783,-0.00439358,0.0184184,0.00799662,0.0132689,-0.021757
-0.0418735,-0.0353571,0.00130651,0.00926864,-0.00457644,-0.00326174
-0.116522,-0.0823144,-0.00507598,-0.00208843,-0.00348353,-0.00645053
-0.0557753,-0.0716757,-0.00385011,-0.00346297,0.00111932,-0.0120186
-0.0311302,-0.0513608,0.0174788,0.000893414,0.00024122,0.00174773
0.107618,0.0618144,0.0461121,-0.00129473,-0.00890046,0.017785
0.0608202,0.208196,0.0471246,-0.011744,0.0030607,0.0142605
-0.0334311,0.0308298,-0.0183207,-0.00559753,0.00467235,-0.0123259
0.00944629,0.0575738,0.022267,-0.000186622,-0.00665355,-0.0142875
-0.0310169,0.0992665,0.0229116,-0.00676179,0.00755072,0.00112838
-0.0162208,0.112036,0.00151597,-0.00219584,0.00398564,-0.0118022
-0.022582,0.0351508,0.0137448,0.00604361,-0.0100657,-0.00227332
0.0241883,0.0265392,-0.00418963,-0.000245392,0.00203329,-0.0132743
0.0603005,-0.00129188,-0.0209669,-0.00430864,0.00330061,-0.00103545
-0.0271269,-0.00658208,-0.0298079,0.000450909,-0.00104904,-0.00648195
-0.000386945,-0.0204566,-0.0114547,0.0025419,0.00117588,-0.00613868
0.0697319,-0.0365897,-0.0442101,-0.00530308,0.0119848,-0.0261463
0.126188,-0.0697455,-0.043785,-0.00160199,-0.00495595,-0.0164018
0.222036,-0.0933302,-0.049681,0.00510067,0.0129303,-0.010602
0.123996,-0.10394,-0.0510491,0.000989795,-0.0180047,0.00460941
0.143211,-0.0836509,-0.0468353,0.000290215,0.00769973,-0.00231451
0.0782556,-0.101746,-0.0384141,0.00225431,-0.00786388,0.0285625
0.0187206,-0.0493286,-0.0208129,0.00962216,-0.00801176,0.0255916
-0.0398419,0.00840109,-0.0192686,4.42266e-05,0.00998384,0.00756413
0.05682,0.0445535,-0.0725629,-0.0156856,0.0089711,0.00494677
0.0705409,0.127811,-0.101899,-0.014753,0.00221306,0.0151398
0.0770648,0.18552,-0.0851564,0.00433415,0.00927562,0.00342327
-0.0354872,0.104549,-0.0123974,0.0208281,-0.0354386,0.00972629
-0.0329786,0.0672763,0.0540968,0.0120441,0.00190812,-0.0203135
0.0223727,0.0309044,0.0481305,0.00429666,0.00264293,-0.0276222
0.0193854,-0.0363184,0.0891557,0.00699711,-0.00909716,-0.00625992
-0.023192,-0.0255942,0.0953393,-5.19156e-05,-0.00342542,0.00596768
-0.794648,0.0155678,0.0868384,-0.00154275,-0.0633409,0.0254748
-0.609114,0.163923,0.0961901,-0.00797737,0.0334629,-0.00986648
-1.10569,0.0361208,0.0994309,0.00124276,0.00165701,-0.0242981
0.838359,0.00673453,0.01822,0.011372,0.100315,-0.0430772
0.307473,-0.230046,-0.00466964,0.00609267,-0.0341543,0.0398395
0.0819887,0.0511363,0.0375387,-0.0112532,-0.0188941,0.0492699
-0.160063,0.108941,0.00206534,-0.000181615,0.0131285,-0.00853062
0.000680733,0.0607141,-0.0183875,0.0103667,0.00332785,-0.011828
0.0038777,-0.0279345,-0.0103234,0.0090794,0.00071305,-0.00606537
-0.0621335,-0.0652515,0.00142477,0.00307769,-0.011813,0.00784993
-0.0981575,-0.117499,0.0400937,0.0117518,-0.00310594,0.011719
-0.160852,-0.132355,0.0698723,0.00123388,-0.00791615,0.00832826
-0.10655,-0.0715287,0.0579277,-0.0147117,0.0142522,-0.0134837
-0.0236672,-0.0171878,0.0151479,-0.00927752,0.00996774,-0.00389999
-0.032206,-0.00757251,0.0118468,0.00299859,-0.00634193,0.00477993
0.00186562,-0.00760668,0.00770321,-0.00567532,0.00396526,-0.013229
0.00716926,-0.0172298,0.00457956,-0.000231385,-0.00341398,-0.00284106
-0.0365491,-0.0417702,0.00136774,-0.00436717,-0.00667852,0.00444812
-0.00123151,-0.0898134,0.0317289,0.00329959,0.00402319,0.00618827
-0.0415955,-0.0545007,0.0495119,0.00621426,-0.0106201,0.0102896
-0.0522805,-0.0245973,0.0418008,-0.0119015,0.0127729,-0.00963908
0.0389056,0.0606461,-0.0406814,-0.0254482,0.0237182,-0.00769365
0.26834,0.047759,0.019025,0.00422847,-0.00110728,0.0160626
-0.0175361,-0.0300853,-0.0274837,0.0139886,-0.00327408,0.00332355
-0.123252,0.0243965,-0.0709694,-0.0170397,-0.0169129,0.0133683
-0.259133,0.00328635,0.015202,0.0177128,-0.0239838,0.0177696
-0.0117601,-0.0662716,0.0507688,-0.0119315,0.0448908,-0.0291818
0.0336447,-0.100605,-0.0150797,0.0176976,-0.0114058,0.00725961
0.0796558,-0.02048,0.0102156,-0.00190341,-0.00885499,0.0100594
0.117985,-0.0279922,0.00613109,-0.00937426,-0.00201595,0.0144661
0.0682074,0.0266037,0.0515334,0.00453031,-0.00242811,-0.00549561
0.0766264,0.0457902,0.0322107,-0.00661337,0.00469756,-0.00661415
0.270638,0.0360578,0.0479571,0.00316596,0.00185561,-0.00739294
0.150151,-0.0375703,0.0405043,0.00810558,-0.00827605,0.00663996
0.139545,-0.0535681,0.0501836,0.00107455,0.0127252,-0.00469255
0.111794,-0.0589026,0.0426377,-0.00750589,0.0143692,0.000950277
0.0154836,0.0104718,-0.0329649,-0.00988901,0.00508481,0.00989938
0.0245577,0.117119,-0.128715,-0.00540471,-0.00757968,0.0141741
0.278735,0.0903972,-0.0282253,0.00644016,0.0176257,-0.00474811
0.153081,-0.00988306,-0.00667318,0.0058974,0.000529647,0.00112987
0.172142,-0.029155,-0.024644,0.00938076,0.0100914,0.00201541
0.133128,-0.101633,0.0504741,0.00581115,0.0122322,-0.00741082
-0.27722,-0.0575702,0.0251447,0.00465477,-0.0469041,-0.0200945
-0.0289944,-0.105831,0.0231818,-0.00695664,0.0377535,-0.00522733
0.21705,-0.0109879,-1.60909e-05,-0.0133796,0.076317,-0.0403816
0.070947,-0.0440227,-0.0185156,0.000170827,0.00224078,-0.0153639
0.243985,-0.0440298,0.0526515,0.00801301,0.0115927,-0.0162906
0.322642,0.00605342,0.0162927,-0.013194,0.000895262,-0.0250102
0.48361,0.0753766,0.0228564,0.00379914,-0.0120402,0.0105681
0.846221,0.199093,0.0682874,-0.0184473,-0.0256661,0.0208512
-0.116709,0.0682261,-0.0498626,0.0127167,0.0299058,-0.0521079
0.1715,-0.0258275,0.0458515,0.00579548,0.0191734,-0.00236124
0.297109,0.0990037,0.0145258,-0.0184218,0.00771588,0.00509292
0.394744,0.0272556,-0.0444741,0.0109613,-0.00471413,0.000654817
-0.0880012,0.0222601,-0.0558659,-0.00948846,-0.0304924,0.00154322
0.552852,-0.0841296,-0.143597,-0.000444651,0.0297526,-0.0258884
2.05337,0.203812,0.234112,0.0238212,-0.0898046,0.142382
0.180579,0.0174943,-0.221507,-0.0191968,0.121882,-0.0365686
-0.429236,-0.0726169,-0.0928556,0.0152023,-0.0583906,-0.0322692
-0.214668,-0.0726608,-0.0258104,-0.0109085,0.0531577,-0.00381923
-0.566272,-0.119385,-0.019343,0.00198096,-0.0144541,-0.00454879
-0.584512,-0.103388,-0.0419529,0.0130388,0.0288817,-0.00699681
0.0262674,-0.0525133,-0.00580426,-0.0134199,-0.00188667,0.00782859
-0.0302805,-0.0354035,-0.0200182,0.000843346,-0.028676,0.00465029
0.150565,0.000687376,-0.0719278,0.000720799,-0.0181919,0.0012548
0.407947,0.01562,0.0261661,0.0142215,-0.041874,0.0219382
0.596256,0.0762722,-0.0269439,0.00129658,0.0235439,0.0234534
1.67727,0.239482,-0.299617,-0.0199863,0.0861244,-0.0352447
1.10093,0.194333,-0.100611,-0.00929469,-0.0763512,0.0779141
0.262127,-0.0258788,0.0558076,0.010405,-0.0357612,0.0106521
-0.0504676,0.0425957,-0.0173947,-0.015749,0.0185651,0.0289416
-0.0354174,0.0906844,0.000514658,-0.00523967,-0.00743532,-0.0161844
-0.112071,0.0405637,0.0155091,0.013623,0.00832459,0.00661325
-0.14416,0.0245301,-0.00373668,-0.006356,0.0220848,-0.0156432
-0.0879155,0.00199286,-0.0397084,0.0145824,0.0183699,-0.017839
-0.151586,-0.0256519,0.00617532,-0.0153693,-0.0159585,0.0117166
-0.213406,-0.0127949,0.00158708,0.0128358,0.0208433,-0.00291413
-1.08846,-0.0503507,0.137452,0.00642425,-0.0636443,0.0241201
-1.83264,-0.0613581,0.240514,0.0254953,-0.0623477,0.0394059
-1.35771,-0.0553931,0.192037,0.00640905,-0.0408547,-0.0150982
-0.663176,-0.0164515,0.159125,0.00535929,0.0572866,-0.0151225
-0.16104,-0.0095843,0.0274042,-0.0157276,0.0546363,-0.0309097
-0.0313897,0.0308031,-0.0332733,-0.00920403,0.0244802,0.00168657
0.0359118,0.0446879,-0.00533195,-1.01328e-05,0.000606,-0.0139946
-0.0119337,0.0597062,0.0104189,-0.0108768,-0.0039233,0.0142407
-0.0407089,0.0864273,0.006932,0.0023194,0.0140273,-0.0325364
0.022791,-0.0237546,-0.0551543,-0.00772327,0.0280793,-0.0276982
0.599108,-0.0252946,-0.0754228,0.00583094,-0.0148624,0.0087111
0.44158,-0.0550303,-0.0448379,-0.0058502,0.00930074,0.0244207
0.292436,0.00489925,-0.0457825,-0.0194873,-0.0187798,0.0122186
0.417716,0.0719597,-0.126951,0.0091235,0.0423478,0.00159758
0.600502,-0.00521863,-0.200556,-0.0052799,-0.0566597,-0.0325782
0.373606,-0.0367596,-0.00994947,0.0131919,-0.00624591,0.00823259
0.861582,-0.120755,-0.18494,0.0301691,0.0626601,-0.0450136
1.62712,-0.232885,-0.446322,0.00079298,0.0939986,-0.0719016
1.56748,0.389967,-1.03289,-0.0669339,0.0852056,0.146069
0.101682,0.392733,-0.0853388,-0.0268894,0.00180519,0.102225
-0.496358,0.429281,0.39726,0.137496,0.029096,0.127807
-1.0776,-0.0474069,-0.00676589,-0.0231587,-0.128869,-0.224471
-0.649619,-0.102615,-0.238797,-0.0541385,0.0141404,-0.00926888
-0.575408,0.236545,-0.509968,0.00777286,0.0272681,0.0140458
-0.223294,0.345364,-0.436701,0.00578135,0.0265002,-0.028194
-0.104733,0.199349,-0.197045,0.0191681,-0.0255785,0.0263972
-0.205799,0.0841229,-0.160349,0.0256914,-0.0344384,0.00189233
-0.0542309,0.149237,-0.121741,0.0232671,-0.0075748,-0.0307913
0.0552165,0.154718,0.00577973,0.00252885,-0.0121211,0.00843072
-0.0473413,0.0810223,-0.0325906,0.0126576,0.0451908,-0.0261381
0.0682961,-0.0681144,0.253016,-0.0196193,-0.0236199,0.0342702
-0.339413,0.0249128,0.130153,0.00975895,0.021058,0.0104272
-0.250324,0.164637,0.0483792,-0.026854,-0.000173688,-0.00141233
-0.20852,0.165434,-0.0882308,-0.0154905,0.00678861,-0.0253723
-0.0563071,0.182364,-0.115552,-0.00635111,0.0084967,-0.0186889
0.0723746,0.185398,-0.156757,0.00291681,0.0111049,-0.00455379
-0.0196449,0.0788633,-0.0335415,0.0176755,-0.0136947,0.0100117
-0.0682977,-0.0416828,0.0375755,0.0111781,-0.0149266,0.00689447
-0.0232917,-0.0587322,0.0816635,0.0249593,0.0175292,0.00840563
-0.0987196,-0.174713,0.307573,0.0335588,-0.0204622,-0.0127267
0.160179,-0.10794,0.120063,-0.0234318,0.0387888,-0.0270121
0.194867,-0.111309,0.0411502,0.00785023,0.0100914,0.0188279
0.043792,-0.18696,0.0859508,-0.0067513,-0.00519645,0.0108424
0.121365,-0.198827,0.0521264,0.00176436,0.0115896,-0.0323967
0.291222,-0.151078,-0.0565268,-0.0227268,0.00369608,-0.0177901
0.36392,-0.178829,-0.0133396,0.012391,-0.0289725,-0.00838131
0.132593,-0.269159,0.154128,0.0188851,-0.0134159,0.0139495
-0.182762,-0.273182,0.160451,-0.0122771,-0.00115919,0.0179318
-0.0947058,-0.105678,0.0816985,-0.0120955,0.001109,0.0212763
-0.083862,-0.0351404,0.106924,-0.0155842,0.00856,0.00721562
0.100731,0.109738,-0.0407708,-0.0017823,0.0241503,-0.0075115
0.126427,0.112958,-0.0203937,0.0165265,0.0131441,-0.00152957
0.231747,0.214294,-0.0569829,0.00364745,0.0133902,-0.00158709
0.167128,0.284633,-0.178417,-0.000641763,0.00523564,0.0172165
-0.0808105,0.228308,-0.119146,-0.000680149,-0.0334698,0.0439961
-0.306366,0.211488,-0.0621863,-0.00295424,0.0129778,0.0513735
-0.511125,-0.00201782,-0.0733223,0.0116594,-0.0434232,-0.0980816
0.232893,-0.0858021,-0.0165693,0.000214696,-0.0185027,-0.0137658
0.0176188,-0.070699,-0.0249526,0.0195659,0.000415146,0.0157582
0.147914,-0.0974106,0.0280638,0.00325692,-0.0100973,-0.0134822
-0.0219769,-0.135559,0.130246,0.0174167,-0.00476176,0.0112392
0.0279133,-0.169828,0.101805,-0.00648707,0.00511175,-0.0157931
0.0447471,-0.151747,0.0643549,-0.00454718,0.00452292,0.00575668
0.0426039,-0.0865992,0.0564475,-0.00126988,0.0023129,0.0130929
0.127991,0.0105714,0.0721618,-0.00647682,0.0135912,-0.0126103
0.101495,0.0661712,0.0909339,0.00659966,-0.00285897,0.0178138
-0.07127,-0.0533635,0.0761044,-0.00493145,-0.00725555,0.0177213
-0.160685,-0.116284,0.0964777,0.0146686,-0.0190077,-0.00736535
-0.181564,-0.149252,0.171405,0.00142372,-0.00769737,-0.00293338
-0.0688573,-0.0650311,0.124269,-0.0137212,0.00830585,-0.0126666
-0.027425,-0.00528862,0.0983948,-0.0065676,-0.00411245,-0.00869429
0.0311883,0.0128264,0.0984975,0.00491852,-0.00340348,-0.00809121
-0.0209169,-0.0437089,0.121105,0.0100573,0.000438631,0.00123608
-0.118701,-0.103375,0.16707,0.00356936,9.60231e-05,0.0162221
-0.0305204,-0.0458423,0.118947,-0.000384808,0.0170293,0.000766397
-0.0362141,0.00211714,0.0534384,-0.00749505,0.00357905,0.00967765
-0.00554198,0.0308633,0.0127681,-0.00301051,0.00434443,0.000871718
-0.0484302,0.0212058,-0.0311378,-0.00071913,0.002451,0.00585532
-0.0505244,0.0436465,-0.0270164,0.000113547,-0.000179231,0.000901103
-0.0421995,0.0542629,-0.0612455,-0.00492352,4.28557e-05,-0.00250059
-0.0368351,0.0382494,-0.0536431,0.00250465,-0.00746745,-0.00412238
-0.0770455,0.00952352,-0.00445729,0.00890249,-0.0114291,-0.000944138
-0.0799599,-0.0267044,0.0459824,0.0102465,-0.00380066,-0.018514
-0.125397,-0.0842335,0.114567,-0.00813323,-0.0167506,-0.00330663
-0.0342517,-0.0160909,0.0268538,-0.00848109,-0.00614578,-0.00507754
-0.16296,-0.046903,0.0661045,0.000826478,-0.0243831,0.00159228
-0.00406218,0.00321503,0.0845375,-0.00094521,0.00410917,-0.00611353
0.0424366,0.0521974,0.0160134,-0.00805044,0.00162667,-0.00623429
0.081904,0.0350912,0.0248208,0.000786364,-0.00529686,-0.00276834
0.0464573,0.0425125,-0.0234434,-0.00548005,0.00366101,0.0027144
-0.041038,0.0158403,-0.0417592,-0.00127113,-0.000839353,0.00195581
-0.0271888,0.0233058,-0.0428251,0.0104823,0.00413761,-0.00357711
-0.0260983,0.0222444,-0.0385406,-0.00506181,-0.00701755,-0.00741494
0.0249752,0.0446141,-0.0523847,0.00107503,-0.0078648,0.00521171
0.0430404,0.0488577,-0.0608907,-0.00485581,0.00480741,-0.00666797
0.0375176,0.0552138,-0.0940761,-0.0080263,-0.000846833,0.00127596
0.143702,0.0849315,-0.157978,-0.00926727,0.00652862,-0.00637609
0.158489,0.0784728,-0.179248,-0.00182605,0.00426096,-0.002756
0.147909,0.0518033,-0.164159,0.00420845,0.00202739,0.00409186
0.104582,0.0284436,-0.102199,0.0145633,-0.0060862,0.003613
-0.0463253,-0.0183204,-0.0319429,0.0171279,-0.0194097,0.0238746
0.0330455,-0.0620175,0.0594568,0.00786018,-0.000925243,-0.00676239
-0.0169648,-0.0886599,0.0733305,0.00834435,-0.00217596,0.0071733
-0.0405624,-0.068396,0.0453332,0.000210345,0.00748539,0.00342304
-0.0738347,-0.0129026,-2.78661e-05,-0.00530034,0.00484031,0.00206745
-0.0175153,0.0243904,-0.0289046,0.00211203,0.00199124,-0.0024972
-0.0472602,0.0126909,-0.0129141,-0.00571311,-0.00347406,-0.0127738
0.185355,0.151146,-0.147565,-0.035736,0.0160167,-0.0196955
0.322091,0.36947,-0.464729,-0.0576682,0.0384984,-0.0138115
0.648099,0.565421,-0.666717,-0.0271624,0.0160483,-0.00273299
0.696542,0.599395,-0.765055,-0.0251824,0.0283583,-0.00287092
0.736641,0.594978,-0.83005,-0.0205814,0.0305066,0.00420046
0.704986,0.527806,-0.772036,0.0246071,-0.00876302,0.00752491
0.709478,0.356227,-0.540123,0.0227695,-0.0147924,-0.0201936
0.694887,0.306136,-0.481089,0.036584,0.000817746,0.00970292
0.500052,0.195563,-0.26741,0.0683842,-0.0376958,0.0698268
0.0245937,-0.0192686,0.0676958,0.0689492,-0.0302829,0.0631161
-0.294409,-0.176907,0.190394,0.0115554,-0.00538403,0.039938
-0.259143,-0.186515,0.208752,0.00991082,0.0120839,0.00648546
-0.261281,-0.188652,0.20769,0.00977755,-0.0063422,-0.000726223
-0.214274,-0.196127,0.229284,0.00502205,-0.000483662,0.000909686
-0.149457,-0.160983,0.196175,-0.005081,0.0054037,-0.0125768
-0.110332,-0.1344,0.143797,-0.00763649,0.00742605,-0.00504756
-0.116993,-0.0928186,0.0954207,-0.0175455,0.0103347,-0.00516349
-0.0768693,-0.0342145,0.0289486,-0.0239918,0.00644851,-0.0120066
0.0633189,0.0392405,-0.0543428,-0.0165517,0.00720903,-0.0112246
0.0758891,0.0413034,-0.0906353,-0.00991821,-0.000916064,-0.00937468
0.128152,0.0562326,-0.0830585,-0.00266021,-0.00671956,0.00482273
0.0303381,0.0253951,-0.0447597,0.00317752,-0.00745401,-0.00472629
0.0528613,-0.000211707,-0.0177981,0.00283211,-0.00715488,0.003685
-0.0322385,-0.0214666,0.00766312,-0.000938535,-0.00373942,0.00055635
-0.0352988,-0.0299683,0.0312117,0.000998378,0.00325906,-0.00363445
0.013597,-0.011884,0.00991073,-0.00180751,-0.0016498,-0.00381434
-0.0394182,-0.0128349,0.0535227,0.00726485,0.00973833,0.0110759
-0.110662,-0.0383716,0.0801332,-0.00463098,-0.0186336,-0.00895178
-0.0139016,-0.0235523,0.0451431,-0.00464886,0.00480533,-0.00926268
0.0114126,0.0350965,-0.00322507,0.000583649,0.0121931,-0.00531787
0.0411463,0.0371804,-0.0202218,-0.00520939,0.00025028,-0.00745672
-0.00895539,0.0318707,-0.0235789,0.00567955,-0.00285101,0.00885248
0.0125858,0.020174,0.0161092,0.00838572,-0.00206113,-8.57115e-05
0.00525697,-0.0139594,0.0408768,0.00262815,-0.00605625,1.49608e-05
0.162627,0.0328207,-0.0176028,0.00115508,0.0271427,-0.0209896
0.080118,0.051972,-0.0971016,-0.0256263,-0.0102365,0.0211549
0.0990297,0.0657639,-0.143063,0.00347054,-0.0134196,0.0157377
0.0641575,0.019949,-0.0905422,0.0184647,-0.00812453,-0.0108851
0.371455,0.25588,-0.039637,-0.0100874,0.00652972,-0.0328127
0.189053,0.282971,0.102679,-0.0180725,-0.0575168,-0.00775748
1.2403,0.431894,0.199674,0.00553548,0.016587,-0.0297233
-0.178019,-2.58054,2.58585,0.434084,-0.251505,-0.0513736
0.229669,1.45079,-0.337465,-0.613035,-0.444916,0.0686558
0.0616646,0.245067,0.363149,0.12799,0.00852516,-0.0133049
-0.226895,0.231769,0.574775,-0.074468,0.175099,-0.00101888
0.246821,0.259187,-0.0347824,-0.0211915,0.0538045,-0.0536907
-0.310439,-0.170367,-0.35248,0.0351878,-0.107728,-0.0133281
-0.839365,-0.140634,-0.0715139,-0.0292856,-0.0315579,0.0106993
-0.93289,-0.0184252,0.135691,-0.0502397,-0.0686543,0.0913964
-0.696931,0.87424,-0.576528,-0.257566,-0.21857,-0.0746717
0.112713,0.318696,0.340424,-0.0250403,0.0570731,-0.0675284
0.432678,0.30555,-0.318593,-0.279709,0.0102936,0.0186017
-0.0851587,-0.274893,0.446103,0.0337067,0.0139866,0.0263875
0.145569,0.0392385,-0.0198441,0.034259,-0.101821,0.0216893
-0.108826,0.0747531,0.0206413,-0.0692749,0.00670722,-0.062849
0.183374,0.129075,0.0577113,0.0962124,0.0443379,0.00718021
-0.104365,-0.224867,-0.275494,0.00194037,0.0337979,-0.0235416
-0.797114,-0.304318,0.415851,0.0204144,0.0402278,0.0126629
-0.438493,-0.238058,-0.0223704,0.0353159,-0.0901519,0.00922608
-0.472252,0.0200415,-0.879997,-0.203728,-0.174446,-0.0569687
0.999657,-0.29886,0.647983,-0.177593,0.218232,-0.00601
0.194262,-0.261011,-0.0465629,-0.0287139,0.192579,0.0102025
0.0325315,-0.598946,-0.334526,0.0399,-0.0869543,0.0171478
0.800984,-0.387368,0.0398692,-0.0839502,-0.103015,-0.0271167
-0.501517,0.196011,-0.444251,-0.21639,-0.0562031,0.288698
-0.651497,0.0273166,0.148201,0.0371926,-0.146344,-0.133203
-0.574245,0.0377837,0.0586725,0.0180346,-0.0402027,0.0134277
-0.974076,-0.276752,0.220551,0.0264388,-0.0353395,-0.0408016
-0.905442,-0.286598,0.117232,-0.0244923,0.0271253,-0.053413
0.0635056,-0.0511768,0.163139,-0.00938016,0.0435023,-0.0592806
-0.702931,-0.484631,-0.0324469,0.0321249,0.0161552,-0.0217322
-0.394035,-0.127858,0.0967492,-0.0240718,-0.0170032,0.0752053
-2.07581,-0.366257,-0.128103,0.0599748,-0.0477718,-0.0558274
-1.04058,-0.346564,-0.02499,-0.00657725,-0.015276,-0.00197691
-0.507326,-0.0627227,0.0328619,-0.0220035,-0.0232571,0.0182233
0.13649,-0.0642051,0.0748161,0.0042119,-0.0272213,0.0212504
0.270926,-0.131228,0.289443,-0.0120976,-0.0922174,0.0937123
0.624922,0.155879,0.304934,0.0209901,0.0410019,-0.0336825
-0.014612,0.035295,0.0992482,-0.0139568,0.0207292,-0.0190182
0.0876682,-0.037411,0.104375,0.00670099,0.00813761,-0.013905
-0.013409,-0.150505,0.138923,0.00387716,-0.00357565,-0.00376236
0.0470838,-0.0982866,0.0939343,-0.00436574,0.0152481,-0.0103315
-0.0893847,-0.1185,0.0817997,-0.00183642,0.00235909,0.0138656
-0.0667251,-0.114163,0.12887,0.00112247,-0.00310069,-0.00830501
0.0684675,-0.0544922,0.102279,-0.00713336,0.000982881,0.00659448
0.254246,0.0370184,-0.0204907,-0.0178617,0.0342165,-0.0258015
0.296958,0.171274,-0.195359,-0.03772,0.0384463,0.000558138
0.362361,0.205209,-0.308589,-0.0192248,0.00891861,0.00328428
0.381109,0.249926,-0.384668,-0.0160773,0.00918347,-0.00539738
0.372276,0.232754,-0.434806,-0.00123441,-0.000417829,-0.00960743
0.35212,0.348144,-0.43029,-0.00062114,-0.0152838,0.0284521
0.17606,0.41549,-0.478397,0.0103619,-0.0245472,0.0287784
0.10065,0.40387,-0.436936,0.0225091,-0.0180106,0.0400357
-0.0635498,0.32417,-0.270355,0.0543523,-0.0332197,0.0261321
-0.243648,0.222078,-0.0876625,0.0467755,-0.0199755,0.0392656
-0.332107,0.0376789,0.103386,0.0593742,-0.0351136,-0.0195909
-0.322986,-0.137312,0.21888,-0.0165397,-0.00549394,-0.00390267
-0.214727,-0.105476,0.145355,0.00868714,0.0150754,-0.0119194
-0.0604496,-0.0939089,0.107393,-0.00771737,0.00695413,-0.0304773
0.0320135,-0.199784,0.0774415,-0.00333184,0.0168493,-0.0153648
0.135872,-0.125263,-0.0230883,-0.00789064,0.00662917,-0.0074634
0.070995,-0.165766,0.000438454,-0.00404686,-0.0117804,0.0049625
0.0624983,-0.0589465,-0.00456119,-0.0115817,0.0113814,0.030375
0.0296146,-0.0449951,0.0187329,0.0148683,-0.000581086,0.0133188
-0.0225937,-0.0139821,0.0161995,-0.0038721,0.0109338,0.0198503
0.000732256,0.036165,-0.0075453,-0.0023073,0.0106412,0.0015853
0.0198932,0.062846,-0.0129885,-0.00438643,0.00555551,-0.0110768
0.0305816,0.00090074,-0.00186094,0.000330925,-0.00447989,-0.00505823
0.0104094,0.00627815,0.00977999,0.00698328,-0.000718534,0.00139266
0.0125698,-0.011872,0.0163174,0.00337136,-0.00404003,-0.00295305
-0.0299454,-0.00433299,0.0332048,0.00182271,-0.00603455,0.0195509
-0.108917,0.0448207,0.00801503,-0.00105441,-0.0204309,0.0169944
-0.0840335,0.043844,0.0711531,0.0197016,-0.00869823,-0.0309801
0.0223071,-0.0364009,0.0432237,-0.0160159,0.0300677,-0.0354732
0.0827291,0.0275449,-0.0146615,-0.00510323,-0.006769,0.0185974
0.0358378,0.03719,-0.0170364,0.0108478,-0.0139658,0.0120769
0.0148948,-0.0203615,0.0495034,0.022031,-0.00526184,-0.00481582
-0.0874378,-0.0138883,0.0415982,-0.0157313,0.00970614,0.028431
-0.113862,-0.0202145,0.0778685,0.0196776,-0.0472741,0.0216922
-0.260443,-0.0156963,0.154217,0.0126505,0.00944191,0.00778943
-0.240322,-0.0477895,0.136338,-0.00383961,0.0201277,-0.0221431
-0.134807,-0.119418,0.14788,0.00705552,0.000676364,-0.0124557
-0.241373,-0.134296,0.146512,0.00478107,-0.0085634,0.0280499
-0.126531,-0.105614,0.105086,-0.00291878,0.0174557,-0.040441
-0.0412696,-0.169754,0.114367,-0.00778711,-0.0219684,-0.0180217
0.0658745,-0.0834618,0.0276645,-0.0100821,0.0205212,-0.0116701
0.0659012,-0.0941347,0.0330766,-0.00751203,-0.0253605,0.000813901
0.0915586,-0.0396591,0.0424353,0.00629014,0.00205949,-0.00893605
0.156422,-0.0525637,0.0213936,-0.00877166,0.0115795,-0.0209653
0.142185,-0.067618,-0.0416008,-0.00150913,0.0084928,0.00650638
0.0698666,-0.112381,-0.0148708,0.00951403,-0.011351,0.0130174
0.00403285,-0.050319,0.0176037,-0.006118,-0.00795883,0.0273557
-0.00654484,-0.00970206,0.0269151,0.00666362,0.00628686,0.00242049
-0.0012582,0.0105747,0.0182558,-0.010307,0.00223875,-0.00799453
0.032622,0.0756363,-0.0237087,-0.00654054,-0.00169152,0.00964421
0.0581228,0.0852087,-0.0364972,0.00475127,-0.00681242,-0.00836611
0.0102484,0.042545,-0.0203734,-0.00105274,-0.0068019,0.00575048
0.00698976,0.0329157,-0.0299366,0.00847208,-0.00668132,-0.000321865
-0.0248335,-0.0140119,-0.00197277,0.00680256,0.000964224,0.00203991
-0.0356247,-0.00443109,-0.0255814,0.0041548,0.00277886,0.000199676
-0.0289842,-0.0342694,0.0184444,0.00722331,-0.0137439,-0.00860417
-0.0375598,-0.00864416,0.00755986,0.00485116,-0.00431639,0.0122875
0.00814731,0.0254662,-0.0138587,0.00652468,0.00690687,-0.00875175
-0.0259257,0.0222944,-0.00969141,-1.84774e-06,-0.00816125,0.000904799
-0.0155005,0.0222198,-0.0481171,-0.00974381,0.00946775,-0.00634617
0.00462679,0.0296468,-0.0683909,0.00370139,0.000522524,0.00153267
0.0122642,0.00299106,-0.0361334,0.0127339,-0.0104176,-0.0282715
0.0177791,-0.0439509,-0.000551881,-8.35061e-05,4.18425e-05,0.00273919
0.0422235,-0.0162188,-0.0134611,0.000776231,0.00154045,-0.00436205
0.0251708,-0.0247518,-0.0134692,-0.00415599,-0.00445715,0.00553894
-0.0130551,-0.0268204,0.00883886,0.0034951,0.0124503,-0.0288509
-0.00988206,0.0287088,-5.77508e-05,0.000705004,0.00997096,-0.0123845
0.06567,0.0190103,-0.0157387,-0.00028491,-0.0187464,0.00108165
0.0360349,-0.00333808,0.0195545,-0.00203568,-0.0037868,0.0103744
-0.0131766,0.0244103,-0.0160687,0.00100398,0.00374889,-0.00138301
-0.0355714,-0.000143397,-0.0170615,-0.00951791,-0.000957847,-0.00926924
-0.0131904,0.00945322,-0.0170391,0.00669044,0.000391722,-0.000789464
-0.00674123,0.0190769,-0.00852932,-0.00585592,-0.00236529,0.0132839
-0.0314216,0.0179772,-0.0374638,-0.0107254,-0.00840706,0.00270712
-0.0299055,0.101415,0.0303817,0.00936931,0.0325346,-0.0364421
0.0916218,0.0903481,-0.136837,-0.0320372,-0.00297838,0.0118565
0.20691,0.196816,-0.288816,-0.014785,0.00243318,-0.00354195
0.264736,0.208605,-0.241665,0.0137151,0.0371427,-0.018451
0.217181,0.140401,-0.169813,0.0256796,-0.0178542,-0.00144243
0.0447271,0.067952,-0.13687,0.00604278,-0.00704041,0.039681
0.215193,0.247249,-0.155558,-0.014645,0.00544846,-0.0132865
0.433815,0.189466,-0.118036,0.000313222,0.0181994,-0.0330784
0.184649,0.0903736,-0.0819984,0.0564101,-0.0378057,0.021747
-0.116749,-0.141878,0.140616,0.0382431,-0.0314092,0.0167481
-0.120466,-0.216479,0.238315,0.00354242,-0.0196961,-0.00111377
-0.177181,-0.187669,0.195177,-0.00553453,0.00637215,0.00876188
-0.0888306,-0.212326,0.182846,-0.0045135,-0.00330615,0.00387263
-0.0727518,-0.148228,0.193175,0.00721145,0.00323632,-0.000509858
-0.0974948,-0.108762,0.150091,-0.00403392,0.00160962,0.009516
-0.0442655,-0.113086,0.142835,0.00614095,0.00682968,-0.0104727
-0.00144497,-0.110924,0.176104,-0.00949299,0.000880599,-0.0299779
0.0740731,-0.112089,0.153958,-0.013814,0.0163097,-0.00876236
0.119306,0.00839403,0.0454339,-0.0226121,0.0218276,0.00585604
-0.0506555,-0.0396987,-0.0414348,-0.00348634,-0.00812155,0.0106552
-0.182654,-0.0534469,-0.0194028,0.00550753,0.00422215,0.0222742
-0.0503637,-0.0054359,0.00428644,-0.0127983,0.00147501,-0.00914717
0.517991,0.0423248,0.0734163,-0.00094682,0.022689,-0.0323958
-0.0335457,-0.00658452,-0.0341062,-0.000215888,0.022773,-0.0032137
-0.0746464,0.0509424,-0.141479,-0.00950098,-0.00506142,-0.0189956
0.0619678,0.107513,-0.108214,-0.00292218,0.00518203,-0.0158444
0.118378,0.172601,-0.124448,0.00425589,0.000237018,-0.0105093
0.340346,0.0806825,-0.0589155,-0.00119305,-0.00856087,-0.050105
0.0703201,0.00599239,-0.127824,0.0112833,-0.0104756,0.0184182
-0.116036,0.0755856,-0.116148,0.013269,-0.00901151,0.0181384
-0.0312672,0.0201585,-0.011835,0.0119447,-0.00322697,-0.038771
-0.134384,-0.0491159,0.0341702,0.00781184,0.00439358,-0.00981617
-0.122405,-0.0319617,0.0757752,0.00765389,-0.0046972,-0.0105622
0.0077327,-0.0661947,0.103195,0.00534779,-0.00473994,-0.0080452
-0.0512338,-0.0107176,0.0374379,-0.00808674,0.00491461,0.00720394
-0.0409113,-0.0247078,-0.0169224,0.00356138,0.00321251,-0.00320506
0.0369332,-0.031157,-0.00590375,0.00117236,-0.0101668,-0.00578237
-0.0847057,0.0158792,-0.0387187,-0.0105119,-0.00227511,0.0298246
0.0742923,0.0745698,-0.00431223,-0.000260472,-0.0127397,-0.00542581
-0.014267,-0.025795,-0.0157452,0.00347114,-0.00198805,-0.0048039
-0.0481725,-0.0513451,0.018481,0.00588679,-0.00449592,0.0116106
-0.0236077,-8.11676e-05,0.0235836,-0.00472111,0.0238603,0.00104046
-0.0195442,0.0244224,-0.0118185,-0.00853318,-0.00579852,-0.0132451
-0.0634866,0.037197,-0.0558721,-0.000454068,-0.00919706,0.00146216
-0.0218974,0.0531961,-0.0515461,-0.00378132,-0.00140834,0.00886309
0.0550451,0.0414556,-0.0127178,0.00513542,-0.00598684,-0.00906229
0.0775468,0.0500206,0.0076096,-0.00392181,-0.0102502,0.00306398
-0.0119465,-0.017196,0.0151907,-0.00169635,-0.0119721,-0.00278747
0.0370776,0.0148105,0.0140998,0.000581205,0.000378013,-0.000484943
0.367747,0.0467078,0.071758,-0.00515652,0.0221115,0.00817382
0.254561,-0.00988249,0.0364406,-0.000640452,0.00499821,-0.00151992
0.0505512,-0.0643442,-0.0419661,-0.000630915,0.0105236,0.00428367
0.224141,-0.0342854,0.118758,-0.0109379,0.0462808,0.0104154
-0.222826,0.0203709,0.0269798,-0.00872684,0.0614849,0.0393826
-0.335484,-6.46561e-05,-0.101523,0.00315642,0.00962442,-0.00164473
-0.111259,0.0458283,-0.0272577,0.00493461,0.00428355,-0.00700951
-0.0418618,0.0265923,-0.0022999,-0.00362688,0.01045,0.0114928
0.0444042,-0.00659428,-0.00603476,0.000588775,0.00450054,-0.0223185
0.0955245,-0.0183874,-0.00897422,0.00567114,0.00457513,0.00306177
0.161914,0.00942752,0.0434478,-0.00852096,0.0100378,0.0307833
0.348487,0.0274748,0.0600564,-0.00902784,0.00226837,-0.00269377
0.164851,0.0392535,-0.0026759,-0.000484288,0.00145158,-0.000253677
0.0199061,0.0115834,-0.00624435,0.00251102,-0.0102971,-0.00247455
-0.343655,-0.0608328,-0.0370541,0.00233078,-0.0230071,0.00148225
-0.00437226,0.0223498,0.0309889,0.00282627,-0.0159298,0.0231704
0.0404743,0.0447724,0.0449015,-0.00207627,-0.00590098,-0.00355947
0.0103466,0.0340286,-0.003221,0.000779033,-0.00355369,-0.0079428
0.0402655,0.0233509,0.0119173,0.00939947,-0.00153172,-0.00778174
-0.0205799,0.0073431,-0.00530056,0.00314993,-0.00609887,0.0030582
-0.0931041,0.0244658,-0.0185038,-0.00243467,-0.0194757,-0.00344646
-0.122959,-0.00221795,-0.0195122,0.00507098,-0.00919312,-0.00613058
-0.382184,-0.015996,-0.0695423,-0.00494981,0.0225598,-0.00044769
-0.0505302,0.00626315,-0.0246365,0.00384641,-0.00221658,0.00306135
-0.0216449,-0.00440441,-0.00415984,-0.00491142,0.00744563,0.0108187
-0.0175233,0.00836758,-0.028801,0.000221789,0.0179537,0.00515461
-0.0698618,-0.00337781,-0.0492235,-0.00384939,-0.0092836,-0.00349104
-0.0015234,0.0297218,-0.027812,-0.00214511,-0.0100674,0.0194327
0.162902,-0.0183655,0.0329484,-0.000317931,0.00340116,0.00109601
0.386064,0.0189845,0.108334,-0.00395989,0.0033161,0.0313892
0.263234,0.0318074,0.057573,-0.00209939,-0.00117958,0.00337237
0.000621519,-0.0194056,-0.0210747,-0.00167483,-0.00454059,-0.0104035
-0.128586,-0.0524989,-0.0651512,-0.00846243,-0.00282866,0.0380217
-0.0737738,-0.0192943,0.0107008,0.00202358,-0.0233984,-0.011196
0.128839,0.0115754,0.0358314,-0.0140542,-1.8239e-05,0.0156227
0.0860493,0.00621783,0.00792641,0.00162482,-0.00334632,0.00243104
-0.00247655,0.0115987,-0.00739765,0.00279194,-0.00860482,-0.0101707
-0.19573,-0.0567257,-0.0675108,0.00420332,0.00611132,-0.0196621
-0.226688,-0.0449707,-0.0783881,0.00342655,-0.00587857,0.0224831
-0.199737,-0.0203353,-0.0282285,0.0044651,-0.00802833,0.00333583
-0.168755,-0.0107219,-0.0153544,-0.00420117,0.00162935,0.00694144
-0.0470934,-0.0502752,0.0206177,-0.0113404,0.0200005,-0.00648105
-0.0318623,0.00213938,0.0684142,-0.00612086,0.0319904,-0.0180694
-0.183739,-0.00218569,-0.0272186,-0.0117325,-0.0156502,0.024309
-0.144377,0.0116505,-0.0389133,0.00768471,-0.0173748,0.00639033
-0.0547525,0.00948291,-0.0182642,0.000579834,-0.00713256,-0.00364673
-0.0482961,0.00842901,-0.0075497,-0.00119418,-0.0104139,0.00748777
-0.0441585,0.00198074,-0.0277919,0.00265115,-0.00423479,-0.000101924
-0.0855927,-0.0107692,-0.00649528,0.00125945,-0.00273862,0.000153899
-0.0579374,-0.00546422,-0.014973,5.36442e-06,-0.00386301,0.00529253
-0.0344733,0.000933186,-0.0117218,-0.00206774,0.00371644,-0.00422812
-0.0110158,0.00732895,-0.0095395,0.00720936,0.00820717,-0.000746369
-0.0131078,-0.00440707,-0.00199096,-7.12872e-05,0.00225118,-0.00684965
-0.0120253,-0.0086747,0.00124535,0.00345635,0.00434712,0.00389612
-0.0279411,-0.00223535,0.0118294,-0.00157762,-0.00243038,0.00189275
0.0114745,-0.0076077,0.0109433,-0.00109071,-0.00202471,-0.0110493
0.0210291,-0.00121678,0.00452667,-0.000144958,0.00271159,0.00323188
0.0412785,0.00731305,0.00454832,0.00170314,0.000342548,-0.00333232
0.0168302,-0.00226225,0.0152003,0.0051614,0.00145137,0.00678301
0.00190327,-0.0086628,0.014119,0.00385189,0.00163046,-0.000452042
-0.0193716,-0.0139768,0.0204849,-0.00149804,-0.00510404,0.0057435
-0.0108447,-0.00864239,0.0204826,0.000236988,0.00569838,-0.00618017
-0.00667949,-0.01081,0.0044856,5.37634e-05,-0.00430465,0.0039891
-0.0215399,-0.0118502,0.0140526,0.00305897,-0.00427228,0.00218725
-0.00449634,-0.00865965,0.0130261,0.000888586,-0.00075981,0.000468671
-0.00882242,0.00414154,0.00117358,-0.00233579,-0.00363857,0.00109798
-0.00776166,-0.00547309,0.00124008,0.00498319,0.00908273,-0.0101886
0.000722128,0.0158693,-0.00741384,0.004682,-0.00929144,0.00435436
-0.0014147,0.0169368,-0.00849617,-0.000437915,0.00232315,-0.00765252
0.00279626,0.0297353,-0.0181797,0.0029791,-0.000384629,0.00438607
0.0198725,0.00836935,-0.0115656,-0.00790948,0.0033673,0.000102043
-0.00996244,-0.0172406,-0.00937568,-6.79493e-05,-0.00121838,0.00177944
-0.0194575,-0.00652473,0.00547624,0.00267106,-0.00467926,0.0071885
-0.0119278,-0.0054426,0.0172524,0.00605941,-0.00240758,-0.00487506
0.0104178,0.0233698,0.00966796,0.00109428,0.00329605,-0.000612676
0.019913,0.0126535,-0.005183,-0.00456482,0.00197709,-0.0069434
0.00599926,-0.00871469,-0.0136445,-0.00205117,-0.00606871,0.00138164
0.0123408,0.00301351,-0.0233121,-0.00112492,0.000120729,-0.00094384
0.00168003,0.0179735,-0.025588,0.00038147,0.0060001,0.00375569
0.0304334,0.0115388,-0.027575,0.00358033,0.000555575,-0.00798446
-0.000391232,0.00944736,-0.0148543,0.00550121,-0.00484669,0.0123606
-0.0365048,-0.00437623,0.0053999,0.00296152,0.00137573,-0.000278175
-0.0269321,-0.0129327,0.00335442,-5.53727e-05,-0.00126016,0.00189698
-0.0152128,-0.00332969,0.00226768,0.000222385,0.0033493,-0.00180531
-0.00041208,-0.00657888,-0.0168882,0.00178289,0.000615597,-0.0128409
0.0774846,0.0275727,-0.000790671,0.00460356,0.00256431,0.0133595
0.00487722,0.0190389,-0.0255821,-0.00391084,-0.0171883,0.0105376
-0.0172901,0.0148443,0.0096212,0.00338393,0.00760046,-0.0052408
-0.0620611,-0.0353249,0.0108462,-0.00245517,0.0041849,0.00120491
0.0339502,-0.000119029,0.0270054,0.00231117,0.000898719,0.00175577
0.170523,0.0243973,0.0562062,-0.00366664,0.00852406,-0.00258917
0.350772,0.00295346,0.0880031,0.00489801,0.0193504,-0.00775075
-0.0492541,-0.0833897,0.018684,0.00256979,-0.0140294,-0.0112373
-0.0109837,-0.0567446,0.0015617,0.00306195,0.00183576,-0.00450665
-0.509999,-0.149391,-0.0499236,0.0473919,-0.0336905,0.0685374
-0.18256,0.0576562,-0.0137115,-0.0199329,0.00542107,-0.00443351
-0.184832,0.00742065,-0.0326296,0.000821233,0.0169442,-0.0228678
-0.0899619,-0.00759319,-0.0246957,0.00412512,-0.00830269,0.000366926
-0.0238021,-0.00547833,-0.00843503,0.00030905,-0.00355965,0.00278139
-0.0205372,0.00308311,0.00220693,0.00456542,-0.00108618,0.00582165
-0.0130689,-0.00332805,0.00441364,0.00416195,0.00143862,-0.00190735
-0.010921,-0.0075959,0.00765271,0.00614548,-0.000948429,-0.00127888
0.00180856,0.00626155,-0.00307216,-0.000840783,0.00109378,0.00051713
-0.00777549,-0.00761334,-0.000882702,0.00121504,-0.00375402,0.00361896
0.0145677,0.00304041,-0.00727834,0.00236017,0.00274467,-0.00526255
-0.0248781,-0.00120902,-0.0106025,-0.00203425,-0.00792149,0.0110956
-0.000342837,-0.00869476,-0.00512128,0.00812846,0.000286639,0.00232863
-0.00250043,0.00197892,-0.0105397,0.00277227,-0.00207236,0.00744277
-0.00349142,-0.015087,0.00345682,0.00252599,0.00235227,-0.00374913
0.0040002,-0.000129815,0.00766036,0.00189716,0.00770372,0.00299525
0.0583462,0.0201224,0.00666588,-0.00201422,0.00465733,-0.00924617
0.0210061,-0.0343323,0.0036721,0.00775695,-0.000963867,-0.00323367
-0.0162832,-0.051392,0.00578056,-0.000773609,0.00190949,-0.00540042
-0.0397803,-0.047118,-0.00395201,-0.00792229,-0.00812992,0.0093981
-0.0175341,-0.000178994,-0.0298158,0.00203794,-0.00911272,0.00424141
0.0145181,0.0190465,-0.0169983,0.00619173,-0.000445127,-0.0032568
0.0220228,0.0211896,-0.0095033,0.00491714,-0.000490308,-0.00662076
0.0135714,0.0137419,0.00333283,0.00233167,-0.00681746,-0.00306338
-0.0035335,0.0158738,-0.00636012,-0.0023154,-0.00551209,-0.00468659
0.0219768,0.019041,-0.0169706,0.00111109,-0.000656366,-0.00335729
-0.00895065,0.0158518,-0.0213387,0.00398427,-0.008371,0.0152664
-0.00895608,0.00517045,-0.0212707,-0.000516415,0.00513518,-0.00184262
-0.0217902,0.011573,-0.0299052,0.00616682,0.00520927,0.00336564
0.00909095,0.0115449,-0.032996,-0.00636697,0.00235283,-0.00480223
0.0217451,0.0157694,-0.0554145,-0.00261641,0.00797153,-0.000680566
0.0330712,0.0701158,-0.126243,-0.021806,0.00889349,0.00511438
0.161685,0.205568,-0.190746,0.00067389,0.00736934,-0.01732
0.190354,0.286688,-0.21467,-0.0282258,0.00796831,0.00738841
0.221835,0.338856,-0.300366,-0.0109956,0.0249518,-0.00123006
0.153585,0.406178,-0.316017,0.000447273,-0.0208537,0.0294429
0.216076,0.564091,-0.392667,-0.0652435,0.017507,0.00182223
0.590527,0.815687,-0.516836,-0.0541653,0.086704,-0.0788518
1.02308,0.958153,-0.714872,-0.0934491,0.0556844,-0.0706008
1.3602,1.00791,-0.827186,-0.0865191,0.070891,-0.0393763
1.31051,0.892707,-0.752901,-0.029048,0.0750374,-0.0103227
1.09826,0.738254,-0.595636,-0.00686604,0.0363467,0.0511487
0.865296,0.577268,-0.517466,0.00679183,0.189224,0.00673044
1.0715,0.668814,-0.610241,0.029992,0.025236,0.000784874
1.59296,1.25107,-0.947557,-0.0391314,0.00900996,0.143336
1.60509,1.61614,-1.08985,-0.194113,0.137722,-0.0123367
1.90184,1.49294,-1.167,0.040199,0.0570468,-0.0275921
2.05862,1.32518,-1.12686,-0.0734482,0.0410395,-0.131183
2.35175,1.29402,-1.1042,-0.0600169,0.29981,0.146033
1.41606,1.23914,-1.12871,-0.169356,0.0649231,0.270602
1.18558,1.64583,-1.39932,-0.0880179,0.00730464,0.0305369
1.26407,1.50744,-1.08935,-0.0472839,0.0720887,-0.158521
1.50075,0.844229,-0.294581,0.0231693,-0.0948191,-0.144545
0.310562,-0.02288,-0.0412606,0.0642977,-0.00886965,0.134305
0.00330119,-0.104245,-0.278011,0.107835,0.191744,0.05191
-0.171207,0.252234,0.0855041,-0.125249,-0.315882,0.00581861
-0.77204,-0.00480872,0.661883,0.090284,-0.342347,-0.16446
