rotation_x,rotation_y,rotation_z,acceleration_x,acceleration_y,acceleration_z
-0.16607,-0.335512,0.0555087,-0.0401318,-0.0606143,0.0200076
-0.0375713,-0.058868,0.149846,-0.0390307,-0.0852541,0.0427844
-1.3733,0.896827,0.59739,-0.0998935,-0.190158,0.234417
-1.38888,1.84087,1.16911,0.0197715,-0.0277934,0.118953
-0.707698,1.74778,1.08269,0.0508343,-0.0430834,0.228632
-0.943425,1.56167,1.09948,0.0894871,0.0139607,0.0251768
-1.00329,1.47332,1.24879,0.0723467,-0.0623966,-0.00991392
-3.00773,0.684101,0.457013,0.207124,0.00689957,-0.273088
0.687532,-0.188245,0.313441,0.0406101,0.1237,-0.0250546
0.965098,0.206414,0.515347,-0.058324,0.00911689,0.00299299
0.128208,0.196415,0.404159,-0.0199277,0.0851576,0.0281984
-0.0956437,0.0370381,-0.0971742,-0.00747645,0.104615,0.0100428
-0.0717,-0.084291,-0.203842,-0.00984132,-0.0316694,-0.0324036
0.0310121,-0.0907913,-0.097755,0.00164968,-0.0491621,-0.0146366
0.0393618,-0.0482234,-0.0730736,-0.0102271,-0.0625401,0.0424019
-0.528651,-0.0913748,-0.351426,0.0213717,0.0610115,-0.0185381
0.0570511,0.0507436,-0.0162239,-0.0259145,-0.0486802,-0.0229429
-0.0619657,0.0476148,0.093792,-0.00859344,-0.0555714,-0.00137484
0.0734518,-0.042934,-0.0245045,-0.0139938,-0.0051432,0.0260732
-0.0185479,0.00715933,-0.0213178,-0.0194334,-0.0301532,0.0189615
-0.0586292,0.0029347,-0.0142657,-0.00437236,-0.0294634,0.00341368
-0.00678856,-0.00349942,-0.00725707,-0.00966942,-0.0216464,0.00735295
-0.0295117,-0.0088055,-0.00536782,-0.013934,-0.0235072,0.00836676
-0.0651429,-0.0151593,-0.010041,-0.00523418,-0.0273513,0.00804031
-0.0868275,-0.0108887,-0.00493969,-0.0140836,-0.028599,0.00493526
-0.0881479,0.00507133,0.0164408,-0.00919366,-0.0191473,0.00118148
-0.0469425,-0.000282995,0.00620024,-0.0109068,-0.0200527,-0.00334144
-0.0111915,-0.00455948,0.000193036,-0.0159167,-0.0180339,0.00174695
0.0125585,-0.000321836,0.00366772,-0.0110665,-0.0211069,-0.000852227
0.0125425,0.00393822,0.00473717,-0.0139166,-0.0237743,0.00466204
0.0137067,-0.0120277,-0.00165775,-0.00761205,-0.0245063,0.0073998
-0.0284719,-0.00135399,-0.00214891,-0.0123939,-0.0326428,0.0121701
-0.0177447,0.0050254,0.00546446,-0.00962257,-0.0198268,0.00590169
-0.0242437,0.00503116,0.00646311,-0.0126905,-0.0278924,0.00469649
0.00586945,-0.010968,0.0239445,-0.00180417,-0.0146314,-0.00120282
0.0881197,-0.0770188,0.0238792,-0.00505757,-0.0170749,-0.0126374
-0.0349408,-0.0418013,-4.3097e-05,-0.0222813,-0.0465267,0.0403754
-0.180997,0.0338892,-0.000694542,-0.0204484,-0.0344457,0.00822544
-0.1055,-0.00982061,0.0226824,-0.000727534,0.00135151,-0.0221555
-0.0219573,-0.00667813,-0.00420814,-0.0170107,-0.0359356,-0.00491452
0.00720792,-0.0237294,0.000425547,-0.013116,-0.0168517,-0.0029248
-0.0221577,-0.0183941,0.0161425,-0.00537527,-0.0287023,0.00693488
-0.0448018,-0.0247616,0.0105402,-0.0203913,-0.0266383,0.000561118
0.0306464,-0.00991942,0.0327958,-0.00804305,-0.0116701,-0.0098446
0.0277848,-0.0333298,-0.00148032,-0.0195634,-0.0343222,0.0107639
-0.0481239,0.0199479,0.0136709,-0.0149875,-0.023158,0.00358355
0.0200301,-0.00458461,0.013397,-0.00997359,-0.021301,-0.00814134
0.0567705,0.00603261,0.0148734,-0.0130671,-0.0254486,0.00801629
0.00505274,0.0135301,-0.00391782,-0.0158199,-0.0293388,-0.000203907
-0.0694182,0.00187845,-0.0165287,-0.0143797,-0.0261707,0.0107467
0.0147489,0.0145884,-0.000594514,-0.00580513,-0.0320883,-0.00893307
0.0429313,-0.0109775,-0.00453162,-0.0110894,-0.0269725,0.0137391
-0.0435362,0.00292091,-0.00981374,-0.00942576,-0.039341,0.0161153
-0.024352,0.0465425,0.0128435,-0.00636828,-0.028693,0.00634193
0.00512586,0.0188537,-0.0114181,-0.0167844,-0.0330271,0.00719386
-0.0632301,0.0337969,0.00920159,-0.0151639,-0.0188177,-0.00437176
-0.0273068,0.00291104,-0.0106982,-0.0140291,-0.0164037,-0.0143046
0.0225601,-0.00245095,-0.0219133,-0.0146919,-0.0167109,-0.00232887
0.045197,-0.0120473,-0.0141492,-0.0116999,-0.0306122,0.0026291
0.0482266,0.012426,0.00405998,-0.00907087,-0.0220607,0.000339329
0.0861784,-0.00675868,-0.00405485,-0.00620687,-0.0305317,0.0106703
0.0210758,0.0209563,0.0144476,-0.00834221,-0.0387652,0.0136007
0.0177772,0.00712608,0.0208572,-0.00615382,-0.02284,0.00796568
-0.048016,0.0125002,0.00404457,-0.0148164,-0.0267144,0.00917333
0.0126419,0.0263005,-0.00705467,-0.0130531,-0.0186281,-0.00368822
0.0330585,0.0198916,0.00602689,-0.0095076,-0.0202931,0.00102663
0.0557233,0.00497251,0.011654,-0.00780386,-0.0243721,-0.00141585
0.0826024,0.0006891,0.0269504,-0.0127795,-0.0185406,-0.00270665
0.0882627,0.00388463,0.00238489,-0.014502,-0.0221174,0.0138893
0.0567158,0.0379676,0.0169846,-0.00848508,-0.0356955,0.00426549
0.0871112,0.0294312,0.00662904,-0.0103989,-0.0228568,0.00574118
0.0308138,0.0124407,0.0145757,-0.0135548,-0.0333144,0.0124952
-0.0167665,-0.00349532,0.0161892,-0.0110872,-0.0254385,0.00529057
-0.0510685,-0.0343258,-0.00985713,-0.0173725,-0.0270142,0.00847733
-0.0510231,-0.0790364,-0.00981629,-0.00691056,-0.0399217,0.0203096
-0.0671119,0.00400709,-0.0304267,-0.0234711,-0.0310135,0.00233006
-0.0531661,0.0572236,-0.0249615,-0.0132137,-0.016157,-0.00810051
0.00845136,0.0156585,-0.0188738,-0.00872803,-0.029485,-0.000814438
0.0722117,-0.00674616,-0.0127788,-0.00721419,-0.0190569,0.00179482
0.0688641,-0.00461262,-0.00317654,-0.0114593,-0.0251469,0.00144804
0.000775423,0.0337564,-0.0104149,-0.00519609,-0.0398444,0.0273987
-0.0135628,0.0358903,0.01619,-0.013903,-0.0226054,-0.00223374
0.112055,0.0102553,0.00157898,0.0107028,0.00608075,0.000241041
0.111378,-0.0248634,-0.0337288,-0.0241648,-0.0246475,0.0276921
-0.00895179,0.0518612,-0.0126829,-0.0149261,-0.0557062,0.044545
-0.159548,0.0743262,0.0123653,-0.0104805,-0.0522439,-0.00102317
-0.105365,0.0434167,0.00444124,-0.0141301,0.00047031,-0.0303496
0.0302575,-0.0205443,-0.0325083,-0.0126957,0.00854525,-0.0378169
0.0659968,-0.0461133,-0.0352856,-0.0152419,-0.0273133,-0.0039615
-0.00130529,-0.0152033,-0.0135979,-0.0135984,-0.0341631,-0.00104332
0.063305,-0.018455,0.0128295,-0.00754821,-0.0238132,0.00168544
0.102179,-0.00251141,0.0164741,-0.0146203,-0.0241655,0.00259161
0.0567349,-0.00354649,0.0191681,-0.00487208,-0.0235346,0.0148596
0.0513959,0.00710556,0.011604,0.0110472,-0.0350877,0.0360119
0.00163875,0.015659,0.0121041,-0.0224214,-0.0486932,0.0203582
-0.0805514,0.0433924,0.0100701,-0.00732172,-0.0478313,0.0418431
-0.14948,0.0402614,-0.0163987,-0.000317335,-0.0453514,0.0148247
-0.117265,0.0168078,0.00753825,-0.0198131,-0.0301555,-0.00687921
-0.102997,0.00615882,-0.0115609,-0.00956959,-0.0094139,-0.00307059
-0.102765,-0.00341051,-0.0329561,-0.011383,-0.0311912,-0.0035094
-0.100787,0.014677,-0.0168944,-0.0117339,-0.0220046,-0.00407517
-0.00886508,0.0316408,-0.0190827,-0.0121537,-0.0132509,-0.00607008
0.0233224,0.0465137,0.00375233,-0.0149865,-0.0153549,-0.0150568
0.0730628,0.0102819,0.00756072,-0.00709605,-0.0082694,-0.0205084
0.114965,0.00705371,0.0337394,-0.016023,-0.0172719,-0.0136135
0.157286,-0.0110671,0.0213921,-0.0104226,-0.0109777,-0.0104491
0.217988,-0.0292064,0.00924679,-0.0124293,-0.0161891,-0.00669706
0.208461,-0.0313255,-0.0101347,-0.00792366,-0.0241112,0.00667441
0.163656,-0.0557657,-0.0663017,-0.0170819,-0.023161,0.0215471
0.169026,-0.0323459,-0.0651859,-0.00462329,-0.0328287,0.0289996
0.14987,-0.0365822,-0.0943081,-0.0010199,-0.0607856,0.036963
0.118857,0.0411308,-0.0315636,-0.00763524,-0.0723481,0.0590217
-0.100779,0.0295776,-0.0190536,0.00505984,-0.06185,0.041685
-0.237276,0.0530996,0.00187275,-0.019348,-0.0521984,0.0275048
-0.370072,0.0233971,-0.0156627,-0.000382483,-0.0214612,-0.0165633
-0.208752,-0.0235554,-0.0298505,-0.0137553,-0.00689784,-0.0181653
-0.103955,-0.0278981,-0.0200999,-0.0129321,-0.00976807,-0.0201012
-0.00448215,-0.00455096,-0.0211351,-0.0172269,-0.0132585,-0.0258934
0.0700431,-0.0131258,-0.0117189,-0.0197826,-0.0194823,-0.0169445
0.0687569,0.00283256,0.00644663,-0.0142078,-0.0257854,-0.0147357
0.11015,-0.0025071,-0.021981,-0.00808525,-0.00760534,-0.0276753
-0.767262,-0.37966,-0.359188,0.0740876,-0.0300114,-0.467147
-3.83738,-1.70224,-1.98054,0.37791,0.173869,-0.534177
1.9578,-2.49287,-3.05333,0.555962,0.537748,0.100408
7.41498,-3.02617,-2.12585,0.630699,0.472572,0.513503
6.50143,-3.86792,-0.409357,0.205538,0.0433667,0.609583
1.85061,-2.55929,-1.0683,0.162366,0.247463,0.325539
0.870661,-1.75606,-0.709736,0.152654,0.0221294,0.304483
0.147215,-0.95724,-0.475669,0.0945016,0.0936052,0.114705
-0.246071,-0.300208,-0.36407,0.0349832,-0.0385894,0.133735
-0.148992,0.0956809,-0.27556,0.00925606,-0.0168626,0.0284176
-0.0801383,0.255241,-0.0500879,0.0316111,-0.0131382,-0.0123713
-0.139768,0.0668386,0.0864727,0.00679255,-0.00173545,-0.032783
-0.0408912,-0.0141251,0.0491257,0.000647694,-0.0120778,-0.0293553
-0.0167533,0.0050237,0.014043,0.00128695,0.00163531,-0.0194314
-0.0506789,0.029532,0.0500513,-0.000306875,0.00682807,-0.0117208
-0.0662663,-0.000278262,0.0959388,0.00183672,0.0300544,-0.0170907
-0.805182,0.221645,0.21048,0.0410525,0.00316715,0.130657
-4.69769,1.34846,0.681342,0.0701035,0.0461679,0.677178
-4.33598,2.71562,2.25804,0.160245,0.0938015,0.857603
-2.78215,4.21632,2.74314,0.587336,0.191944,0.453149
1.16341,4.69916,1.38579,0.615893,0.250599,-0.257482
-0.846321,2.83998,1.30705,0.507305,-0.104819,-0.45496
-6.9483,-1.1413,-1.224,0.384968,0.510322,-0.618645
0.88136,-0.416229,0.517166,-0.0959593,0.0609875,0.0205022
0.103347,0.0825152,0.517497,-0.0529188,0.0501886,0.0621011
-0.227917,-0.00230212,0.146573,0.00411743,0.0676996,0.103112
-1.20103,-0.118599,-0.164139,-0.00272954,-0.0498489,-0.0221192
-1.18162,-0.226159,-0.0449686,-0.00927126,-0.0506108,-0.10181
-0.256318,-0.122556,0.0821193,-0.0189382,0.0488341,-0.0238757
-0.247103,-0.0725181,0.023284,-0.0286859,0.0328788,-0.010998
0.00728667,-0.0120225,-0.00815636,-0.02977,0.0147443,-0.0450714
0.15672,-0.0440619,-0.0246335,-0.0134808,-0.00119308,-0.0241637
0.295375,0.0122649,-0.0530922,-0.0187532,0.000824332,-0.00131965
0.231706,-0.0323989,-0.061271,-0.00226557,-0.0321287,0.00852197
0.24135,0.00910979,-0.0569164,-0.0171245,-0.0428061,0.0546609
0.0642631,0.138022,0.00947412,0.0140935,-0.0724342,0.0569248
-0.0941512,0.0433806,0.069868,-0.00279427,-0.0180554,0.000157356
-0.139166,0.0689782,0.028654,-0.0317433,-0.0615719,0.00894201
-0.31747,-0.00753585,0.024562,-0.00972414,0.0240011,-0.0482626
0.165777,-0.160087,-0.0522528,-0.0247033,0.0156006,-0.0221188
2.7077,-0.23119,0.0943889,-0.0455316,0.0146014,-0.0784554
1.51273,-0.248355,-0.105437,-0.029718,0.0226004,0.0193185
-1.19862,0.157127,-0.317507,-0.0314379,-0.115465,0.013395
-0.791481,0.485662,0.0122783,-0.0263235,-0.113907,0.0441595
0.44177,0.183486,0.0982837,0.0507686,0.0334791,-0.0576054
0.901155,0.0181723,0.0297703,-0.00615984,0.0155941,-0.0138851
0.361997,0.0590378,-0.0170566,-0.0210479,-0.000789374,-0.0135415
-0.0527992,0.229669,-0.0765361,-0.0371581,-0.0519712,0.0473968
0.224507,0.0538084,-0.00148316,0.0168136,-0.044471,0.0437132
0.0505201,-0.0844433,0.000966915,0.0315387,-0.0310002,0.03874
-0.377582,-0.0723908,-0.115252,-0.0116423,-0.052592,0.0436335
-0.489541,-0.0733874,-0.0597715,-0.00776374,-0.0457385,0.0356816
-0.987402,-0.111347,-0.0150432,0.0138885,-0.0378367,0.00410312
-0.585714,-0.0914338,0.0387386,-0.0142156,-0.00724396,0.0232931
-0.481812,-0.0925744,0.0302781,-0.0126602,-0.0152451,0.0156367
-0.663308,-0.132891,0.0175499,-0.00230324,-0.0533322,-0.011266
-0.716356,-0.178622,0.0277068,-0.0112177,-0.00951183,-0.0172117
-0.449526,-0.0979242,0.0456396,-0.0204221,0.0161643,-0.025447
-0.100183,-0.0875367,0.0388776,-0.0180975,-0.00943071,-0.0302091
-0.129196,-0.0779314,0.020336,-0.0172593,-0.0184049,-0.0154607
-0.147436,-0.0736574,0.00620464,-0.0125103,-0.0148168,-0.00445759
-0.151478,-0.0661936,-0.0216841,-0.0195268,-0.0204242,-0.0232611
0.0458053,0.0145479,0.0286538,-0.0353063,-0.0101431,-0.00696534
0.0771902,0.0539067,0.0225399,-0.00808239,-0.0138609,-0.0188308
0.115427,0.0283443,-0.0123302,-0.0159459,-0.0205833,-0.00123656
0.0742961,0.0613722,-0.0117589,-0.0178736,-0.00728962,-0.00450701
0.160827,0.108148,-0.018318,-0.0313298,0.00020957,-0.0133106
0.286349,0.18896,-0.0341065,-0.0512178,0.00406724,-0.0162541
0.417278,0.223993,-0.0455072,-0.0225714,0.0221278,-0.0399244
0.581993,0.227074,-0.0789771,-0.0107782,0.00582787,-0.00943565
0.6691,0.245124,-0.137965,-0.0157028,-0.00612533,0.00760424
0.681866,0.23127,-0.116394,0.00384939,-0.0252515,0.0243537
0.64857,0.232363,-0.138189,-0.0164635,-0.0275654,0.02353
0.771147,0.246094,-0.07257,-0.00913453,-0.0245734,0.0220984
0.791518,0.151331,-0.0465538,0.0274425,-0.0392915,0.0300564
0.314452,-0.0452193,-0.113856,0.0236047,-0.0635387,0.0464829
-0.00368814,-0.182306,-0.0798448,-0.000419974,-0.077785,0.0872269
-0.109553,-0.151414,0.113789,0.0246996,-0.114949,0.0394577
-0.804285,-0.127529,0.26221,0.0191327,-0.0640373,0.0213646
-0.746381,-0.235062,0.215873,0.00625134,-0.00034669,0.061619
-0.850576,-0.350996,0.160203,0.00447601,-0.0382114,0.0509812
-0.918281,-0.320092,0.220435,0.00544101,-0.0428981,0.0259684
-0.719518,-0.235087,0.232236,-0.0325042,0.0132369,-0.00927508
-0.428664,-0.0862436,0.117609,-0.0702709,0.0833009,-0.0389524
0.0298646,0.0145737,0.00171427,-0.06285,0.0438515,-0.0586809
0.464158,0.105812,-0.0705529,-0.0448305,0.0420946,-0.0603435
0.630415,0.219606,-0.158727,-0.0615096,0.0348265,-0.036733
0.801695,0.367458,-0.213677,-0.0449837,0.0344738,-0.024148
0.860063,0.454701,-0.219529,-0.0170096,0.0190027,-0.00594902
1.18892,0.419337,-0.227541,0.00414574,0.0314417,-0.0118357
1.51196,0.39887,-0.19816,-0.0250554,-0.0117817,0.0482333
1.50397,0.366923,-0.154329,0.0320815,-0.0340013,0.0596066
0.810501,0.0438505,-0.197196,0.0465449,-0.0712722,0.056549
0.0694675,-0.239809,-0.244933,0.0435131,-0.106446,0.101199
-0.452859,-0.304379,-0.133,0.0303348,-0.131569,0.156114
-0.754209,-0.218005,0.135462,-0.00616854,-0.145994,0.166996
-0.967556,-0.0550667,0.460525,-0.0238517,-0.0999402,0.152078
-1.11314,-0.026262,0.625878,-0.0217595,0.00659466,0.00432765
-0.424365,-0.34702,0.0418968,0.0846333,0.329736,-0.204101
0.0870615,-0.177085,0.0314546,-0.111414,0.00599694,0.0203874
-0.401437,0.0244697,-0.0149672,-0.0278035,-0.0616242,0.0125242
-0.402298,-0.050038,-0.0288218,-0.00298095,-0.0237685,-0.0325472
-0.0171743,-0.129087,-0.0361544,-0.0297086,0.00207645,-0.0674896
-0.132338,-0.00234059,0.00310316,-0.0220799,-0.00900969,0.0121739
0.0411237,0.0603482,-0.0453166,-0.00689518,-0.012661,7.64728e-05
0.205518,0.0485196,-0.046653,-0.00928092,-0.0290902,0.0136241
-0.00451067,0.0369555,-0.0222574,-0.0277763,-0.0412058,0.0767353
-0.727834,0.044973,-0.137526,0.0124073,-0.00299713,0.0169553
-0.666789,0.0161731,-0.0779156,-0.00725573,-0.0362236,-0.0196832
-0.120626,0.0221321,0.0182048,-0.00279891,-0.00593302,-0.00685811
-0.0536259,-0.00666518,0.0254096,-0.0106481,-0.0231508,-0.00184333
-0.105396,-0.0151319,0.0130634,-0.00484353,-0.0192891,-0.00679481
-0.0490614,-0.0343366,0.00514861,-0.0130824,-0.0193568,-0.00639939
-0.00385017,0.0220393,0.0195197,-0.0166332,-0.0183454,0.00715733
0.0599073,0.0571229,0.0202116,-0.014833,-0.025315,0.00379431
0.0996536,0.0709243,0.0442024,-0.0046702,-0.0315683,0.00622344
0.079316,0.0539178,0.0257933,-0.00679463,-0.0322711,-0.0033294
0.106284,0.0389904,0.0336047,-0.0102237,-0.0273246,0.00808835
0.0999217,0.0251638,0.0228443,-0.0014044,-0.0339243,0.0110303
0.0058382,0.0177833,0.0239294,-0.0111426,-0.0468561,0.0173676
-0.0730159,0.0103828,0.0166073,-0.00964248,-0.0291572,0.0132873
-0.0461767,0.0220729,0.034038,-0.011332,-0.0167318,0.000399232
0.00384615,0.0284246,0.00675311,-0.0151682,-0.0191414,0.00801182
-0.0123706,0.00289475,0.00874352,-0.0140316,-0.0312776,-0.0155504
-0.0330439,-0.0130596,0.0224456,-0.0115857,-0.0187539,-0.0125756
0.00590861,-0.0194703,0.0207573,-0.0155751,-0.016474,-0.000220537
0.0523166,0.000710282,0.0276768,-0.0104032,-0.0204742,-0.00414157
0.0762429,-0.015271,0.0161862,-0.00949574,-0.0278496,0.00377631
0.036303,-0.0258823,0.0103938,-0.00663912,-0.0364364,-0.000845313
0.0310643,-0.0162862,-0.00679677,-0.0145254,-0.0294159,0.0146617
0.0103613,-0.0120234,0.00794628,-0.00769943,-0.0435757,0.00144035
-0.0445938,-0.0332645,-0.00871176,-0.00724226,-0.0333645,0.00992775
-0.0294317,-0.0343449,-0.010687,-0.0122513,-0.0265966,0.00130355
-0.0389994,-0.0311357,-0.0268535,-0.00990212,-0.027411,0.00805807
-0.0895732,-0.0523806,-0.0488178,0.00136006,-0.0263345,0.00987166
-0.2543,0.142509,0.0701161,-0.0416234,-0.0332687,-0.0194993
0.841646,0.131035,0.125362,-0.0676549,0.015268,-0.0052135
-0.487699,0.00221892,-0.140116,0.0270894,-0.0831484,0.0896273
-0.15163,0.023205,0.0874534,0.0152846,-0.0337134,-0.103422
0.431848,-0.116658,0.0417367,-0.00454044,-0.0267538,0.0610757
-0.485533,0.0256196,-0.0394549,0.0168111,-0.0432753,0.122071
0.195365,0.0740411,0.0945453,0.0158503,0.0157971,-0.116103
0.282955,-0.053737,0.00358083,-0.0628209,-0.056843,0.0369895
-0.209888,0.119051,0.0652783,0.0348907,0.00682762,0.0462235
0.337816,-0.0367248,-0.0739753,-0.104622,-0.0604588,-0.0599042
-0.486757,-0.0201629,-0.0212299,0.0528389,-0.0265773,0.0795215
0.201935,-0.00470933,-0.00916425,-0.0174987,0.0229488,-0.0844626
0.114138,-0.0876489,-0.0850212,-0.0160446,-0.0391104,0.0372902
-0.0163137,0.135966,-0.0406889,-0.00079298,0.039005,0.00861013
0.802846,0.0757456,0.0147006,0.00925279,-0.0612902,-0.0499802
0.00142154,-0.307896,-0.14283,-0.0721517,-0.0782438,0.0986055
-0.434204,0.143665,0.211547,-0.0495855,-0.000509322,0.118534
0.018874,-0.0663156,0.0263069,0.0335733,0.0100525,-0.0776391
-0.632341,-0.318049,-0.237797,-0.0131445,-0.109238,0.0381876
-0.056964,0.0741662,0.336883,0.0399565,-0.0289904,0.0126121
-0.0926018,-0.0917876,0.0379126,-0.0401286,-0.0549818,0.059245
-0.510148,0.0223949,0.143359,-0.0164928,-0.0977784,-0.0605712
-0.0469254,-0.146135,0.121994,-0.000336647,-0.00709555,-0.0837246
-0.922168,-0.274194,-0.240056,-0.0486857,-0.00135654,0.0582371
-0.454225,0.0649734,-0.0380786,-0.059557,0.0476374,-0.138267
1.31296,0.133885,0.140345,-0.00646162,0.113458,0.0001508
0.712417,-0.0731285,-0.320242,-0.0132476,-0.0333188,0.0460079
0.0414627,0.181743,-0.193182,-0.0188209,-0.128973,-0.0323808
0.758557,0.0193332,0.119183,-0.00734019,-0.0181624,-0.0189278
0.135375,0.0911906,-0.168469,0.0010227,-0.0533728,0.0908219
0.199497,0.0112225,0.119273,-0.00950623,-0.0374932,-0.0520114
-0.616037,-0.667189,-0.315434,0.122828,-0.0852154,0.0686207
-0.303261,0.0328961,0.109288,-0.0403088,-0.0284132,-0.0242451
0.165941,0.0176657,0.0182468,-0.0256468,-0.00592327,0.00976163
-0.888466,-0.0368588,-0.176736,0.00897986,-0.0303119,0.0767426
-0.996076,-0.066624,-0.0173158,-0.00645596,-0.0385071,-0.0920283
0.315703,-0.0973955,-0.0216994,0.0269383,-0.00908706,0.0638143
-0.221852,-0.00865329,-0.0193159,-0.0517544,-0.0550011,0.0244199
-0.902362,-0.178447,-0.0750333,0.0453062,-0.0410231,0.0191472
0.291195,-0.216613,0.0584505,-0.0570531,0.0400534,-0.0184492
0.988001,-0.200119,0.121995,-0.0556573,-0.000927359,-0.0088675
-0.26366,0.0882607,-0.0637778,0.00572467,-0.0658591,-0.0543838
-0.246289,-0.00758577,0.0425089,0.0129814,-0.0262531,-0.0547434
1.18309,0.176553,0.14632,-0.073956,0.031921,0.0103563
0.488306,0.0110759,-0.0958671,-0.00473219,-0.0794415,0.0589125
-1.50656,0.0252918,-0.0189128,0.0454694,-0.192108,-0.0643938
0.891515,0.400243,0.397629,-0.0298377,0.119395,-0.047112
0.00661758,0.00186509,-0.152709,-0.0353628,-0.110286,0.13922
-0.293932,0.0999422,0.141449,-0.00778782,0.0143629,-0.0800677
-0.171631,-0.104427,-0.262772,0.0163003,-0.0514285,0.149004
-0.0616023,0.159377,0.151516,0.00930208,-0.0697773,-0.0289066
0.726623,-0.0114714,-0.0299741,-0.0942211,-0.0343787,-0.0025568
-0.401318,-0.0308646,-0.0213147,0.0326217,-0.0147281,0.0401395
-0.722506,-0.0455078,-0.121307,0.0462064,-0.0589187,-0.0691207
0.750281,0.122579,0.176807,-0.0887851,0.00232795,0.0057466
0.161273,0.00275881,0.0524728,-0.0221293,-0.0236028,-0.0120096
-0.420632,-0.11069,-0.0278874,0.0500176,-0.0523741,-0.00259376
0.275149,0.0324642,0.121191,-0.0423243,0.0129849,-0.0572824
0.0704009,0.150788,0.0416596,0.0072844,-0.0158073,0.0291462
0.50917,0.096176,0.0723896,-0.0570482,0.0121928,-0.0626512
-0.157191,0.0285845,-0.105339,0.0996901,-0.0679125,0.0632166
0.320883,0.0814009,0.086322,-0.0173563,-0.0426513,-0.0343509
-0.0580746,0.0167949,-0.0688687,0.00156438,-0.0682527,0.0595767
-0.118806,0.0391597,0.0492664,-0.0073235,0.0014737,0.00340223
0.00200367,-0.101391,-0.11518,-0.0559777,-0.0766642,0.011617
-0.652572,-0.0615585,0.0176279,0.0734987,-0.00900659,0.0358486
0.286676,-0.0526539,-0.0424068,-0.0549254,-0.0196897,-0.0634053
-0.000453892,-0.186555,-0.0787191,-0.0385594,-0.0752009,0.0099749
-0.531616,-0.181915,-0.0590489,0.0228,-0.0261155,0.0310016
-0.334719,-0.114993,-0.0740131,-0.0180401,-0.0458292,-0.00575352
-0.0901596,0.0380606,0.102057,0.0365751,-0.0600777,0.037416
0.199462,0.161306,0.211229,-0.0149767,-0.00705862,-0.0191023
-0.029475,-0.0939475,-0.000979536,-0.0551219,-0.0385245,0.0414668
-0.790786,-0.0220688,-0.00539527,0.028366,-0.0618129,0.0318218
-0.665218,-0.121157,-0.00815906,0.00017035,-0.0108064,-0.0404881
-0.0102783,0.0124491,0.117976,-0.0277303,-0.015057,0.0173405
-0.00743922,0.0912158,0.148989,-0.0451273,-0.00454774,0.0133201
0.119262,0.128351,0.231754,0.022577,-0.0112449,0.0116109
0.247887,0.170834,0.233168,0.0161396,-0.027556,-0.00776744
0.314354,0.136709,0.291776,-0.0582509,-0.0401391,-0.0638485
0.0446702,-0.0206199,0.243908,-0.01378,0.024559,-0.033844
0.138901,-0.0972758,0.0298368,-0.00545382,0.00210011,-0.00898767
-0.0465496,-0.0726417,-0.0247526,-0.0532331,-0.0388733,-0.0233556
-0.0831774,-0.121604,0.0701759,0.0168895,-0.0138405,-0.043363
0.131556,-0.110034,0.00942806,-0.00157577,-0.0186391,0.0131447
0.279097,-0.0345816,0.0602748,0.00464904,-0.0417945,0.00619644
0.213726,-0.0196407,0.105563,-0.0290058,-0.0618937,-0.0236577
-0.107008,-0.0694578,0.172638,-0.0418597,-0.0421622,-0.0197451
0.196416,-0.0239158,0.210297,-0.00640082,0.00615069,-0.0183542
0.320135,-0.0750628,0.0693467,-0.0175768,-0.0276003,0.00685692
0.336622,0.040987,-0.0708461,-0.0671443,-0.00871405,0.013822
0.131039,0.00499848,-0.262653,-0.0909389,-0.0497467,-0.0147615
-0.202531,0.00102111,-0.420619,-0.11378,-0.0248801,0.0178139
0.311352,0.360397,-0.270601,-0.055223,-0.00450033,0.0175077
0.0136954,0.163707,-0.328382,0.0399026,-0.00172654,-0.0488746
0.397907,0.0368049,-0.554116,-0.030663,-0.0131776,0.0362679
0.324758,0.167751,-0.396604,0.0127311,-0.0475254,0.0493133
0.180481,0.193389,-0.355441,0.042087,-0.0374541,0.0383338
0.57628,0.16117,-0.354128,0.0241175,-0.0783029,0.0359962
0.305339,0.125105,-0.0862761,0.0313317,-0.122501,0.0311719
0.0493251,0.0549942,0.101485,0.0430401,-0.0733457,0.0332955
-0.0401913,0.0113668,0.290029,0.0244581,-0.0363593,0.0302536
-0.154956,-0.0471044,0.309123,0.0381454,0.00228372,0.0268737
-0.299198,-0.152332,0.15235,0.00583535,0.019391,0.0135456
-0.40999,-0.222502,0.102969,0.00200701,-0.0234785,0.0167987
-0.565691,-0.302253,0.212635,0.00638819,-0.0590617,-0.00919616
-0.509972,-0.322531,0.263612,0.0232219,-0.050896,0.0149601
-0.422042,-0.226817,0.325535,-0.00762248,-0.0340601,0.0480543
-0.279976,-0.0523928,0.476866,-0.0520509,-0.0228174,0.000529647
-0.227981,-0.0545322,0.365031,-0.0153742,0.0295816,-0.0247755
-0.0733146,-0.0322642,0.256478,-0.0283426,0.00561342,-0.0124217
0.205005,0.0207594,0.212459,-0.0567583,-0.0154282,-0.0515373
0.259515,0.0143626,0.0674565,-0.0674956,0.0112269,-0.0201546
0.259343,0.0282431,-0.124226,-0.073369,-0.00800729,-0.0329759
-0.00617742,0.0146358,-0.273913,-0.0648832,0.038554,-0.0079757
0.00580376,0.00296756,-0.487916,-0.0557207,-0.00663498,-0.0191678
-0.0180873,0.1073,-0.488294,-0.0234787,-0.0146987,0.005
0.242469,0.231649,-0.495105,-0.0142201,-0.0131745,-0.00394654
0.368197,0.271982,-0.42306,0.00860506,0.0207818,0.00332445
0.925254,0.238519,-0.227204,0.0267203,-0.0211734,-0.00397575
1.01449,0.0787611,-0.1618,0.0291909,-0.0558054,0.0511554
0.292361,-0.0494792,-0.274786,0.0626938,-0.073528,0.0859582
0.122149,-0.117496,-0.226328,0.0517495,-0.120457,0.099254
-0.0982071,-0.0769603,0.0570126,0.025821,-0.16501,0.0830984
-0.744591,-0.126565,0.242464,0.0479133,-0.126339,0.0364844
-0.781697,-0.21067,0.38667,-0.00254476,-0.0439758,0.0109285
-0.581634,-0.202328,0.488504,-0.00118423,-0.00744307,0.0307844
-0.612669,-0.198047,0.457088,0.00828022,0.0481617,0.0113318
-0.366793,-0.224805,0.317493,-0.00182962,0.0315043,0.00190932
-0.256835,-0.171646,0.241591,-0.0537176,-0.0200011,0.0186093
-0.378803,-0.0938398,0.212298,-0.0615851,-0.0185135,0.0113336
-0.375909,-0.0033234,0.0302092,-0.0550469,0.0122487,-0.0103616
-0.302178,0.0509428,-0.0974953,-0.0614955,0.0115848,-0.0353922
-0.108556,0.120023,-0.213146,-0.0380892,0.0316435,-0.0245057
0.232155,0.114444,-0.219997,-0.0423893,0.00709003,-0.0496819
0.369799,0.145224,-0.252726,-0.0167149,-0.0349505,-0.000562787
0.258921,0.248568,-0.310839,0.0212855,-0.0281346,0.00186497
0.369849,0.230379,-0.265666,-0.0126779,-0.0396675,-0.0262536
0.553022,0.221705,-0.201489,-0.0507271,-0.0397049,0.00210488
0.552862,0.195035,0.023385,0.0615207,-0.0212477,-0.00256693
0.523652,-0.160432,-0.14791,0.042857,-0.0417315,0.0340658
0.340927,-0.0283494,0.0436931,0.0155417,-0.0988851,-0.0188502
0.150253,0.0792903,0.0671166,0.0165879,-0.0513692,0.000115514
0.0307818,0.121945,0.112832,-0.0228286,-0.066477,0.0170435
-0.0531371,-0.0483083,0.0884853,-0.0150783,-0.0519348,0.0276049
-0.125302,-0.0546058,-0.0418793,-0.0132875,-0.0517895,0.0314682
-0.285757,-0.11946,0.107336,0.0228596,-0.011141,0.0254028
-0.134541,-0.024808,0.011522,-0.0333071,-0.0408729,0.029831
-0.0400093,0.0677128,0.0628189,-0.0173491,-0.0278098,0.0108283
-0.0784163,-0.0248568,0.0217881,-0.0151107,-0.00831401,0.0201031
-0.143877,0.0156599,-0.030381,-0.0211432,-0.0267172,0.0141026
-0.0419886,0.0123874,-0.0527917,-0.0162871,-0.0186929,0.00435799
-0.0658352,0.00495061,-0.0466322,-0.00597554,-0.0344381,0.0127462
-0.0659108,0.00281705,-0.0391394,-0.00428998,-0.02854,0.010372
-0.0508128,-0.00357739,-0.0346733,-0.0090977,-0.0413657,0.00508088
0.0125605,0.0144587,0.00456872,-0.00601935,-0.0235015,0.00559938
0.122255,-0.161251,-0.0239948,-0.0135425,-0.0307165,0.0174917
-0.0107546,-0.0994145,-0.0298477,-0.026233,-0.050824,0.0224415
-0.144222,0.0741804,-0.00262725,-0.0169303,-0.0460606,0.0120441
-0.174674,0.115718,0.00984035,-0.0090276,-0.037041,0.00735933
-0.160545,0.0316153,0.0111555,-0.0099442,-0.0201297,-0.00111014
-0.0533637,0.00598889,0.00168448,-0.0100232,-0.0147154,-0.00757205
-0.0208953,-0.0142581,0.0010036,-0.014849,-0.0261358,-0.00271487
0.0126037,-0.0164151,0.00352316,-0.00791126,-0.0311539,0.00350964
0.0168104,0.000612892,0.0131932,-0.00714445,-0.0366136,0.00605202
0.00275035,0.0048796,0.0130277,-0.00918323,-0.0336351,0.0113764
-0.0308047,-0.00255133,0.0169335,-0.000664949,-0.0380473,0.00332689
-0.036136,-0.000411319,0.00938257,-0.0132271,-0.0323771,0.00577605
0.00614127,0.00381313,-0.000856073,-0.0110534,-0.0258166,0.00353217
0.00940133,0.0101965,-0.00296885,-0.00998795,-0.0299797,0.00134766
0.0245808,0.0133776,-0.00708563,-0.00948346,-0.0338387,0.00543219
0.0439335,0.0101715,0.00384945,-0.00623143,-0.0352763,0.00603187
0.0373063,0.00484898,0.017697,-0.00900161,-0.0352685,0.00020051
0.0352793,0.00378869,0.00482569,-0.00863862,-0.0316804,0.00919938
0.0126151,0.00699839,0.00028092,-0.0156612,-0.0366858,0.00662529
-0.0154463,0.0102216,-0.00538398,-0.0109599,-0.0310147,0.00412709
-0.0132492,-0.00149107,-0.00749207,-0.0112678,-0.0302272,0.000866175
-0.00673522,-0.00469272,-0.00956163,-0.006603,-0.0349525,0.009148
-0.0132901,0.00489923,-0.00428122,-0.00740308,-0.0401979,0.0122131
-0.0553454,-0.00572017,-0.0143942,-0.0200545,-0.0356373,0.0103313
-0.094361,-0.0163348,-0.00518456,-0.00101191,-0.0213808,0.00734484
-0.179824,0.0816277,0.0922484,-0.0252563,-0.0476894,-0.0168333
1.02352,0.0956406,0.112293,-0.0716155,0.00231439,-0.0249826
-0.41676,-0.199144,-0.179975,0.0309557,-0.0694878,0.0931712
-0.844548,0.0683188,-0.0405358,-0.023308,-0.0553107,0.00182986
0.747633,0.0521913,0.129548,-0.0085851,-0.00990644,-0.0646916
-0.36211,-0.151304,-0.136587,0.0223165,-0.0643069,0.0652303
-0.369117,0.0913412,0.0965123,-0.00929177,-0.0208434,-0.00285584
0.4962,-0.0604177,-0.0134497,-0.0625144,0.000412613,-0.0321163
-0.70589,-0.0233216,-0.0549326,0.0687344,-0.0784342,0.0256994
0.55927,0.144934,0.140169,-0.037125,0.0265772,-0.0376352
0.437555,-0.0710253,0.011594,-0.0123049,-0.0537022,0.0237029
-0.815193,-0.0977447,-0.142843,0.0091821,-0.0607192,0.0263829
-0.257596,-0.00344439,-0.0113358,-0.00305736,-0.0175181,-0.0307492
0.680434,0.0916222,0.140525,-0.00470209,-0.00230038,-0.000566602
0.115909,-0.11016,-0.0423347,0.0101255,-0.0777749,0.0398598
-0.614891,-0.0777066,0.0382256,-0.000939846,-0.101426,0.0236064
0.0440535,-0.0547982,0.102406,0.00241446,-0.0544031,-0.0618113
-0.277349,-0.190798,0.0346529,0.00963902,0.00884119,-0.000236511
-0.568365,-0.20974,0.0485163,0.0414885,-0.0341687,0.0572654
-0.806398,-0.258509,-0.0376501,-0.0225981,-0.0714427,0.0395699
-0.963752,-0.113665,0.104969,-0.05899,-0.105694,0.0381861
-0.907802,0.0703677,0.424498,-0.048653,-0.0175809,-0.0194576
-0.100035,0.191091,0.518108,-0.0360051,0.0565303,-0.000951886
0.0313353,0.261323,0.253996,-0.0257123,0.115754,-0.0832744
0.216363,0.0813689,-0.0499557,-0.00444138,0.0767714,-0.0848297
0.544734,-0.0795952,-0.102827,-0.0256592,-0.0443822,-0.0494242
0.409543,-0.110367,-0.0979039,-0.000861466,-0.0405099,0.00710797
-0.163485,-0.189725,-0.306682,-0.000304222,-0.0282029,0.0420062
0.160435,-0.062232,-0.272081,-0.0158599,-0.0647065,0.0567791
-0.145997,0.0241522,-0.0347296,-0.0140759,-0.128633,0.0127285
-0.280611,0.0678566,0.114674,-0.00246572,-0.0608067,-0.0250323
-0.0596969,0.030439,0.0882974,-0.0165136,0.00212309,-0.00818199
-0.0688711,0.032589,0.0346563,-0.0145507,0.00727546,-0.0253824
0.0209915,-0.0387669,-0.0723951,-0.00667787,-0.0187232,-0.0196028
0.0420015,0.00590951,-0.0175967,-0.018406,-0.0539508,0.00517547
0.0558687,0.0165371,-0.000321735,-0.00217056,-0.0459409,-0.0105811
-0.0293472,-0.0195806,-0.0173032,-0.0211393,-0.06093,0.00162351
-0.0917433,-0.0323059,-0.0469135,-0.0135268,-0.0161708,0.00059545
-0.0828484,-0.0323015,-0.0703623,-0.0139236,-0.0198911,-0.0168967
0.74174,-0.109539,-0.118765,0.0150526,0.0564974,-0.056059
2.03238,-0.131774,-0.170517,0.0287907,0.0988764,-0.01613
7.98492,-3.0955,0.362405,0.448184,0.0631104,-0.23469
1.18327,-3.19556,-0.886988,0.205206,0.103853,-0.125958
0.374385,-3.45576,-0.859493,0.117337,0.0819333,0.144252
0.424769,-2.39558,-0.919929,0.00447124,-0.0528855,0.366128
0.422803,-1.39609,-0.725,0.0325419,-0.209573,0.186972
0.48684,-1.05893,0.151237,-0.228587,-0.400526,-0.162227
0.37602,-1.10476,0.722867,-0.22777,-0.210109,-0.102305
0.362177,-0.471325,0.43406,0.0649386,0.187497,-0.052241
0.70774,0.419355,0.497044,0.288526,0.115634,0.0749198
0.542194,0.355606,0.512365,0.148186,0.0948066,0.216639
-1.26869,0.956257,0.415234,0.196233,0.00930509,0.244823
-10.0454,0.296578,-0.423413,0.42496,-0.694587,0.403945
-7.97857,-0.235579,-2.47344,0.431561,-0.353819,0.0711001
-4.09143,0.345734,-1.66443,0.421109,0.0580789,0.162215
-0.665917,0.158578,0.241906,0.19461,0.0121964,-0.0545946
0.171832,-0.104285,1.74638,0.0929243,-0.0731068,0.0285707
-0.9811,-0.434506,1.7968,0.0371213,0.240627,-0.0774801
-1.4383,-0.903332,0.78562,-0.0223807,0.382041,-0.171512
-0.111693,-0.967038,0.504127,-0.159627,0.344995,-0.0272987
1.25845,-0.591162,0.255881,-0.266556,0.152094,0.0149595
1.37094,0.013492,-0.218842,-0.132004,0.104927,0.0438298
0.295482,0.381593,-0.509784,-0.0380918,0.0217029,0.0592525
0.804897,0.429018,-0.108962,0.0415933,-0.0676596,0.0226846
0.0827909,0.600856,0.16107,0.0801466,-0.0644692,-0.0475307
0.0187426,0.426298,0.305068,0.0562658,-0.0193214,-0.0696001
-0.209061,0.20402,0.188137,0.037648,0.0822728,-0.0416722
-0.0870958,0.187985,0.108162,0.0199067,0.0456674,-0.0342838
0.0224681,0.163394,0.181155,0.013163,0.0475833,-0.0529535
0.161167,0.0898796,0.0575298,-0.0131543,0.0395197,-0.0376891
0.221306,0.000518904,-0.307879,0.0436862,0.0172222,-0.012926
0.00704365,-0.121717,-0.385136,0.0662462,-0.0156637,0.00642252
-0.00727943,-0.0738683,-0.157288,0.0179359,-0.0603505,0.00802839
-0.00718033,0.151724,0.121943,0.0196328,-0.046843,0.00316417
-0.0172266,0.131497,0.15397,0.0448679,0.0148619,0.0036689
-0.0676645,0.130483,0.117,0.0272078,0.0108549,-0.0321298
-0.046567,0.102802,0.0669399,0.0264879,0.0252713,-0.0318799
-0.0123959,0.0772426,0.00738861,0.0349126,0.0163358,-0.0338943
-0.140014,0.0624379,0.0102462,0.0509256,-0.00842035,-0.0255127
-0.0689149,-0.0536537,0.047567,0.0387973,-0.0328898,-0.0221722
-0.24911,-0.0609872,0.114061,0.0237203,0.0171824,0.0053941
-0.207618,0.0486355,0.0651712,0.0199148,0.0113217,-0.0316621
-0.062624,0.00171442,-0.0423599,0.0733388,0.0412323,-0.011156
-0.0359092,-0.0174742,-0.0099171,0.0358618,-0.0276705,-0.0508144
-0.01151,-0.211269,0.157581,0.0168136,0.0321597,-0.0537299
0.299072,-0.231714,0.137568,-0.00820311,0.0457351,-0.0267142
0.0791335,-0.149575,0.066464,-0.0451652,0.0410823,0.0198902
0.22288,-0.0644976,-0.0379942,0.00545085,-0.00538111,-0.0162474
0.550621,-0.40756,0.194116,-0.0383636,-0.134933,-0.175791
2.75024,-0.712849,1.35108,-0.0843651,-0.349783,-0.143407
5.18877,-0.083877,3.15013,0.0450269,-0.177797,0.0685103
1.32233,1.3082,2.75589,0.293279,-0.0661334,0.0336964
-0.179197,1.39782,2.07922,0.246633,-0.0459772,0.103166
-0.425022,0.990478,1.42799,0.156907,0.129987,-0.0203846
0.529099,0.633399,0.600787,0.0291124,0.111735,0.00171369
-0.981268,0.0279437,-0.0945608,0.0293341,0.0562811,-0.17993
0.126114,-0.0857384,0.0144547,-0.0175377,0.0727903,-0.0980493
1.00876,-0.128988,0.0983767,-0.0187179,0.11282,-0.0338644
0.682299,-0.274525,-0.1054,0.0111713,-0.0449016,0.0383102
-0.145279,-0.286646,-0.279655,-0.0248562,-0.0671517,0.0995934
0.0125147,-0.00582114,0.0120155,-0.0119048,-0.166569,0.0576227
-0.360277,0.0146858,-0.0168544,-0.00792491,-0.044689,0.0370564
-0.236877,0.0433414,-0.0315427,-0.00389743,-0.0369135,-0.00611115
-0.0715539,-0.0163992,-0.0135553,-0.00724864,-0.0219204,-0.0179353
0.607937,0.0693041,0.0443775,0.00653142,-0.0222512,-0.00777942
1.04116,0.134975,0.0770612,-0.00790191,-0.0253095,0.0183733
0.34643,-0.00607777,0.0339943,-0.00977087,-0.07596,0.00859213
-0.340753,-0.036423,-0.0176537,-0.0227064,-0.0407607,0.0691026
-0.132136,0.0602884,-0.0186,-0.000917375,-0.0412904,0.0345951
-0.244576,-0.00456097,-0.0144546,0.00221831,-0.0588529,-0.027002
0.149989,0.0196175,-0.00359813,-0.0191812,-0.0273666,-0.0079667
0.489275,0.0417189,0.0195011,-0.0162093,-0.0161297,0.0336079
1.35838,0.19117,0.0356313,-0.0021891,-0.0407084,0.0367918
0.813407,0.102154,0.0402505,-0.0135913,-0.108157,-0.0262553
-0.982692,-0.230748,-0.0365187,-0.0438259,-0.0594399,0.00640857
-1.71218,-0.202528,-0.0812211,-0.0372809,-0.00694636,0.127441
-0.568841,0.101062,-0.0385819,0.0339943,-0.10302,-0.00351095
0.178457,0.0398043,0.06416,-0.00791681,-0.0209455,-0.0125812
-0.040512,0.0080485,0.0146046,-0.035736,0.0247951,0.0282626
-0.096994,-0.0227548,-0.0620195,-0.0137577,-0.040463,0.0098269
-0.149128,-0.0461408,-0.0379605,0.00179046,-0.0733732,-0.00456393
-0.0780889,-0.0121438,-0.00935852,-0.00819081,-0.0317638,0.0191494
-0.019769,0.0208135,-0.00551472,-0.0100421,-0.0360425,0.0104501
0.0633416,0.00904006,0.0104297,0.000810862,-0.0495506,0.00250411
0.0385509,-0.000525076,0.00372776,6.13332e-05,-0.0447901,0.0195725
-0.0133053,0.00163958,-0.00114945,-0.00373578,-0.0510527,0.0252442
-0.00827482,0.0186616,0.0331576,-0.00897491,-0.0535073,0.0139376
0.0621725,0.00903166,0.0189732,-0.0128179,-0.0371818,0.0252542
0.0272141,0.0537604,0.0485169,-0.0174602,-0.0500884,0.0245849
-0.0922811,0.000638213,0.00224711,-0.0150241,-0.043714,-0.00472987
-0.101,0.00277255,0.00857131,-0.0189465,-0.0360025,-0.00134897
-0.0132801,-0.0260258,-0.00110808,0.000136375,-0.0383367,-0.00511706
-0.00677492,-0.0207108,-0.00318499,-0.0101243,-0.0469772,0.0168683
0.000717934,0.010153,0.00115341,-0.00507909,-0.0427535,0.00912142
-0.0132475,0.00910043,-0.00757029,-0.00456923,-0.0419432,0.00482059
-0.0411046,-0.0217457,-0.0292732,-0.0126969,-0.0489548,0.0149817
-0.0380573,-0.00577896,-0.0121148,-0.0107962,-0.0469518,0.00789279
-0.00237339,-0.00899749,-0.0117058,-0.0075925,-0.0449802,0.00543809
-0.00459848,-0.00154935,-0.00638909,-0.00893068,-0.0534467,0.0102391
-0.0143626,0.0197487,-0.00544772,-0.00832152,-0.0451384,0.0183452
-0.00777482,-0.00260644,-0.012844,-0.0112091,-0.0359986,0.00775403
-0.042438,-0.00789804,-0.00679858,-0.012195,-0.0341345,0.0131435
-0.0607662,-0.0153377,-0.0112857,-0.0103166,-0.0421644,0.00670469
-0.0596404,-0.0249237,-0.014483,-0.00790131,-0.0413771,0.00747526
-0.0434435,-0.0259992,-0.012155,-0.0119105,-0.0475319,0.0109266
-0.0554515,-0.0238626,-0.00158407,-0.00498152,-0.0417157,0.00984538
-0.0663406,-0.0153359,0.0047143,-0.012267,-0.0446242,0.0110226
-0.0405515,-0.00898182,0.0199777,-0.00346476,-0.0356031,-0.00113463
-0.0284651,-0.0132366,0.00192604,-0.00930583,-0.0388291,-0.00198591
-0.0132239,-0.00685123,-0.00860576,-0.0126846,-0.0440422,0.00680399
-0.0218763,-0.0153614,-0.00762544,-0.0104877,-0.039141,7.72476e-05
0.00935009,-0.00793997,0.00449418,-0.0015406,-0.0416391,0.00321448
-0.0186093,-0.00471992,-0.0108131,-0.00838399,-0.04899,0.00777304
-0.0123567,0.0186835,0.00957198,-0.0080843,-0.0395617,0.00915968
0.00287676,-0.000480007,0.00227634,-0.0140757,-0.0400141,-0.00152558
0.00188007,-0.00686352,-0.00522287,-0.0133204,-0.0302738,0.00281322
0.0277231,-0.00155908,0.00470582,-0.00894666,-0.0393735,-0.0042789
-0.0100897,0.00272109,0.00105281,-0.0120475,-0.0519591,0.00794202
-0.00572802,-0.000474394,-0.00210637,-0.00382328,-0.0428208,0.00677204
-0.00253947,0.0101659,0.00220092,-0.00927854,-0.0419266,0.00309187
-0.00911964,0.0229495,0.00961775,-0.011482,-0.0444045,0.00379264
0.0136876,0.00163848,0.00239359,-0.00822133,-0.0415019,-8.41618e-05
0.00944671,-0.00474049,-0.00513964,-0.008946,-0.0370031,0.00484657
0.0278163,-0.00369295,-0.00386576,-0.0117986,-0.0367244,0.000357032
0.0116276,-0.00260464,-0.0072483,-0.0103027,-0.0453463,0.0111496
-0.0154508,0.0123118,-0.00436434,-0.00579989,-0.0403458,0.00504744
-0.0284974,0.00593215,0.0029884,-0.00716746,-0.0403433,0.000618935
-0.0112824,0.0133651,0.0106664,-0.0090614,-0.0434777,0.00207311
0.035399,-0.00794999,-0.00483853,-0.0115899,-0.0404523,-0.00208044
-0.0143134,0.000604514,-0.00862078,-0.0140786,-0.0332047,0.00294775
0.0212796,-0.000490291,0.000346932,-0.00713927,-0.0361524,0.00377727
0.048248,0.00587673,0.00600171,-0.00782633,-0.0434051,0.0143107
-0.00897221,0.0112371,-0.00322582,-0.00941741,-0.0409204,0.00957191
-0.034902,0.000619551,-0.00457001,-0.0152922,-0.0432307,0.0108775
-0.0240947,-0.00471411,-0.00337549,-0.0112634,-0.03887,0.00236267
0.0364304,-0.00263045,-0.000550412,-0.00898349,-0.0319878,0.00230205
0.00176896,0.00271796,0.00440754,-0.00483781,-0.0417463,0.0129627
0.00171328,0.0144226,0.00867389,-0.00430846,-0.0352177,-0.00431752
0.0222783,0.00376491,0.00784906,-0.013935,-0.0406768,0.00603867
0.00298918,-0.00153966,-0.00842577,-0.0130526,-0.0413998,0.00819063
-0.0197416,-0.0111008,-0.00545776,-0.0105554,-0.0336554,0.00296378
-0.0229839,-0.00257718,-0.00656699,-0.0124688,-0.0461061,0.00604534
0.0105032,-0.00367183,-0.00298024,-0.0135928,-0.0392773,0.00690919
-0.0153927,-0.000463147,-0.00863705,-0.0142025,-0.0378565,0.00677228
0.0430341,-0.109075,-0.00143277,0.0031755,-0.031783,-0.00379741
0.0410096,-0.122913,-0.0132258,-0.015111,-0.044126,0.0124174
0.0268987,-0.135676,-0.00694637,0.00116754,-0.0481353,0.0201511
0.0249732,-0.1708,-0.0262095,0.00330412,-0.0403173,-0.00615335
-0.0584792,-0.108999,-0.0143639,-0.0069226,-0.0451081,0.00189221
-0.0358915,-0.0238614,-0.0109821,-0.0138273,-0.0312709,-0.00979054
0.00950253,-0.0153859,-0.0094137,-0.0163376,-0.0367517,-0.00671232
0.0256029,0.034635,-0.0028506,-0.0108131,-0.044959,0.00344491
0.111311,0.00476281,-0.0264895,-0.00269014,-0.0227064,0.0092963
0.0895595,-0.028212,-0.0116987,-0.0112861,-0.0461808,0.017962
0.0418116,0.000555963,0.0016457,-0.0101053,-0.0518911,0.00282192
0.00063424,0.0570028,0.00433628,-0.0119411,-0.0359732,-0.00115001
0.0320413,0.0175931,0.00365841,-0.00981742,-0.033471,0.00412166
0.0019084,0.0112261,-0.00953272,-0.0144663,-0.0482328,0.0161729
-0.034859,0.00486772,-0.0088703,-0.0114939,-0.0433329,0.0113285
-0.0359273,-0.00896554,-0.00886363,-0.00741506,-0.0357631,0.000886321
-0.0369678,-0.0153544,-0.0120859,-0.0145903,-0.0394871,0.006832
-0.0187073,-0.00685371,-0.00117874,-0.00897688,-0.0416857,0.00415671
-0.0187069,-0.00685555,-0.00118108,-0.011438,-0.0398501,0.000680268
0.020175,0.0133412,0.00138244,-0.0115529,-0.0315499,-0.0080663
0.0289017,0.00375594,-0.0049339,-0.010307,-0.0415478,0.00410271
0.00510097,0.00590248,-0.00413457,-0.0116959,-0.0407584,0.00319755
0.00841454,-0.00793694,-0.00943731,-0.00950563,-0.0425675,-0.00172079
0.00510189,0.00589849,-0.00413964,-0.010963,-0.0441835,0.0029977
0.00729406,-0.00261308,-0.00624116,-0.0113941,-0.0435043,0.00782275
0.00187226,0.00270898,-0.00524223,-0.00347281,-0.0399573,0.00554949
0.00833671,0.00164657,-0.0030171,-0.00722444,-0.0323886,-0.00166696
-0.00680613,-0.00366668,-0.00211504,-0.0106462,-0.0438462,0.00710481
-0.0100312,0.0016515,-0.00430728,-0.00817025,-0.0433816,0.00763869
0.0114718,0.010155,0.00664332,-0.0122168,-0.0286174,-0.00132608
-0.00244345,0.0037806,-0.0063582,-0.00988126,-0.0420773,-0.000550926
-0.00346916,-0.00686281,-0.0106429,-0.00732696,-0.0330567,0.00127107
-0.0175557,-0.0100466,-0.00758723,-0.00430667,-0.0390429,0.00927192
-0.0241452,0.00378857,0.000883115,-0.0109676,-0.0379832,0.00963432
0.0104738,-0.0047503,0.000215797,-0.0105383,-0.0355392,0.00298643
-0.00473402,0.0101602,0.00537999,-0.00866199,-0.0365976,0.00568593
0.0471292,0.00160631,0.0102605,-0.00776875,-0.038396,0.00242424
0.0331652,0.0101345,0.000456973,-0.00999671,-0.0408985,0.0137061
0.0256262,0.00374985,-0.00176865,-0.0133539,-0.0365435,0.00262916
0.0245652,-0.00688698,-0.00283224,-0.0134199,-0.0370192,0.00526845
-0.0348108,-0.00791305,-0.0120794,-0.0118045,-0.0490705,0.0143703
-0.0196773,-0.00578763,-0.0119003,-0.0114887,-0.0412284,0.00878417
-0.0229701,-0.000468268,-0.00766549,-0.0128154,-0.0355527,0.00622237
-0.0155163,0.00271626,0.00312219,-0.00780153,-0.0373286,-0.00424111
0.0276623,0.00481962,0.0100438,-0.00763202,-0.0365408,0.00218046
0.015792,0.00482464,0.00776238,-0.0159005,-0.0448744,0.00884575
0.0276714,0.00800868,0.00896414,-0.00944006,-0.0359934,0.00381982
0.00178476,-0.000481319,0.00333234,-0.0122483,-0.0423795,0.00525552
-0.000380424,0.00271153,0.0033019,-0.0104668,-0.0393086,0.00409198
-0.0122786,0.0069794,0.00316445,-0.0102389,-0.0424355,0.0105775
-0.0187323,0.00804362,-0.000129312,-0.0113374,-0.0422436,0.00768244
-0.0111552,-0.00259679,-2.04081e-05,-0.0143155,-0.0394783,-0.00110799
-0.0209397,-0.0132494,0.00628635,-0.0148857,-0.0399798,-0.00205284
0.167345,-0.00698865,-0.006565,-0.00603169,-0.042796,-0.0321836
-0.0677697,-0.200458,-0.358091,0.0707203,0.0682512,-0.143083
0.438078,-0.64452,-1.1207,0.144527,0.228346,-0.0357414
1.25557,-1.33581,-1.67288,0.23556,0.220908,-0.147854
3.60013,-2.24986,-1.39165,0.196812,0.0282536,0.175931
1.92139,-2.28284,-0.827103,0.0342456,-0.156411,0.300284
1.42355,-1.43413,-0.663336,0.0255801,-0.0795453,0.313021
1.22768,-1.08917,-0.372511,0.0907314,-0.0760494,0.208252
0.19953,-0.402852,-0.564726,0.0189914,-0.0534558,0.088678
0.614304,-0.259542,-0.222892,0.0632905,0.0117913,-0.116312
0.407096,-0.255255,0.254436,0.102459,0.0997867,-0.145759
-0.856899,0.136268,0.514904,0.0464136,-0.0924991,0.0415995
0.0966493,-0.210374,0.466088,0.0400227,-0.0451201,0.149026
0.0101358,-0.324073,-0.0401519,0.0430782,0.0694632,-0.0444649
-0.112217,-0.140894,-0.0427889,0.00311199,-0.0452913,0.0505923
-0.0695257,-0.142002,0.0112333,0.0289206,-0.00432566,0.0180987
-0.0328203,-0.106905,0.0137524,0.0138292,-0.0281368,0.0242848
-0.00558019,0.0197532,-0.018187,0.00270652,-0.03532,0.0366004
-0.0940919,0.0453411,0.0675098,0.0104274,-0.0284252,0.0599841
-0.31906,0.335021,0.14712,0.0538695,-0.0514062,0.143542
-1.1768,1.74283,0.341592,-0.0897869,-0.15257,0.53768
-2.25871,2.99215,0.68678,-0.00809175,-0.164932,0.335535
-2.08561,2.82469,1.523,0.230983,-0.0286199,0.06262
-1.45818,2.05354,1.57477,0.262236,0.0380737,-0.0558614
-2.90253,1.37447,1.29567,0.145999,0.00842056,-0.01458
-0.896196,0.604477,1.22923,0.137756,0.40991,-0.0288768
1.06122,0.454214,0.403538,0.0407643,0.171423,-0.0794046
-0.904862,-0.0700119,-0.25636,-0.0148667,0.00905353,-0.152321
0.409998,-0.158323,-0.0325857,-0.0180366,0.0258959,-0.0918291
0.982273,-0.13106,-0.0571784,-0.0141919,-0.0627605,0.00982386
0.7125,-0.124487,-0.00884648,-0.0170779,-0.0625789,0.0565188
2.00628,0.0672184,0.0323894,0.0296903,0.01997,0.0142397
2.45208,0.00941446,0.010729,0.0286797,-0.0498779,-0.0305166
4.75514,-0.0380567,0.0400845,0.0454547,-0.187359,-0.0167283
1.94582,0.192931,-0.196479,-0.0833024,-0.130945,0.0589612
-2.3539,-0.017928,0.0494595,-0.0696759,-0.16662,-0.0823739
-5.91761,-0.483672,0.0480885,-0.00679332,0.100543,0.273947
-1.83746,0.0679065,0.0841372,0.0795457,-0.212599,-0.0495268
0.296618,-0.0400769,-0.0596848,0.0496915,0.0278328,0.0132155
0.337614,0.145056,0.138676,-0.0664718,-0.032719,0.000753641
-0.555828,0.0701558,0.0643846,-0.0498399,0.0988654,0.0664623
-0.167892,0.0550384,-0.21816,0.0387145,0.00190142,-0.059875
-0.0222144,-0.0771223,0.030962,-0.00112057,-0.0792005,-0.0463988
0.354089,-0.00714447,0.025518,-0.0188261,-0.0161381,0.0255304
0.0186205,-0.0217814,-0.0532203,-0.0171324,-0.0196283,0.0410374
0.00224048,-0.00686575,-0.0394954,0.00439966,-0.0777644,0.0135219
-0.0232952,0.00058663,0.0233782,-0.00705713,-0.0592573,0.0224246
-0.18329,-0.0258758,-0.0822623,-0.017073,-0.00972807,0.016181
-0.0253457,-0.0621903,-0.0847289,-0.00244051,-0.0624771,-0.0128653
0.117082,-0.0272015,0.0453358,-1.93715e-05,-0.0384143,-0.00221586
0.26837,0.0823229,0.0447945,0.00567806,-0.0277252,0.0160035
0.183888,0.0930291,0.0566785,-0.00831771,-0.0676636,0.000125289
-0.118744,0.0432291,0.0468808,-0.0294253,-0.0289519,0.0260864
-0.319987,-0.0673062,-0.035594,0.000792623,-0.0313829,0.0198798
-0.178535,-0.0450589,-0.0179499,0.0172462,-0.044423,0.0182291
0.15753,0.0685809,-0.00569866,-0.0207967,-0.038259,-0.00175053
0.0377778,-0.00796281,-0.025176,-0.0113342,-0.026298,0.0275525
-0.127771,-0.0110406,-0.0152753,-0.00951529,-0.0557657,0.0080002
0.000761823,-0.0345509,0.00120284,-0.00871956,-0.0363428,0.00574088
0.0317823,0.0101269,0.0293491,-0.00529379,-0.0280463,0.0199026
0.0526146,0.00266004,0.00281558,-0.0174717,-0.0244122,-0.00580096
-0.0795792,-0.0589591,-0.0692834,-0.00292099,-0.0481843,0.00542855
-0.315233,-0.0598499,-0.0773082,-0.0125535,-0.0670461,0.0377522
-0.250938,0.0156697,-0.0284691,-0.0362374,-0.0422904,0.010456
-0.0327315,0.019758,-0.00673243,0.0174917,-0.013784,-0.0195073
0.0805057,0.0782138,0.0169773,-0.0498848,-0.0447245,0.00135148
0.0947629,0.0665025,-0.00104707,-0.00746441,-0.021875,-0.00958997
-0.0517178,-0.0196043,-0.0486689,-0.0158173,-0.0478084,0.029801
-0.101189,0.0677054,0.0202871,-0.00521797,-0.0353077,0.0204576
0.088581,0.115453,0.0684287,-0.021534,-0.0356972,-0.0266605
0.0827237,0.0558607,0.0138144,-0.0155018,-0.0200562,0.00552988
0.185202,0.0834543,0.0352897,-0.00267988,-0.04285,-0.0045132
0.0647074,-0.00586178,-0.0152435,-0.0115529,-0.042704,0.0358079
0.000121209,0.0378094,0.055718,-0.0168812,-0.0212576,0.0131333
0.0771885,0.0739537,0.0244354,-0.0112311,-0.0571533,-0.00236458
0.263659,-0.0124241,0.0908742,0.00161582,-0.0339822,-0.0395614
-0.0529361,-0.0941249,-0.02827,0.00455499,-0.023104,0.0721486
-0.13149,-0.0174361,0.0307302,-0.00132811,-0.0742562,0.0283163
-0.0726241,0.0495626,0.0827178,-0.0187411,-0.0628774,-0.00768226
0.18703,0.0493777,0.0706735,-0.0137867,0.0162896,-0.0180298
-0.0015601,-0.104789,-0.0801363,-0.0185516,-0.0118631,0.0120844
-0.0924887,-0.0674685,-0.0747807,-0.0281159,-0.103917,0.0253749
-0.0385892,0.00483382,0.0381677,0.00578272,-0.0123809,0.0140085
-0.0496001,-0.0409011,-0.042205,-0.0141864,-0.00925153,0.0341513
-0.017647,0.0495117,0.0993936,0.0195422,-0.068663,-0.00225919
0.0536898,-0.0793129,0.0114668,0.00278318,-0.0172153,0.0157554
-0.173818,-0.143,-0.0456567,-0.0504994,-0.0615637,0.0551764
-0.45845,-0.0565726,-0.031835,-0.0121043,-0.0803752,0.0151749
-0.318366,-0.0375273,0.0136322,-0.00423408,-0.0308039,0.0145592
-0.206207,-0.0386809,0.0427439,-0.0101835,-0.029358,-0.0186185
0.20007,-0.348597,-0.517688,0.143895,0.11338,-0.33292
1.28395,-1.69148,-1.3521,0.298956,0.257109,-0.457142
3.49793,-3.06413,-1.36312,0.403867,0.365171,-0.147287
4.40455,-3.52175,-0.220659,0.111446,0.0318782,0.22679
2.51373,-2.93711,0.0892595,0.155578,0.135052,0.221304
1.36626,-2.50624,0.163642,0.191137,0.113958,0.214555
0.640366,-1.52853,0.200491,0.15753,0.127275,0.086915
0.0810381,-1.06827,0.180844,0.1797,0.0350128,0.0468919
-0.658487,-0.684484,0.0275383,0.0316816,-0.0465234,0.141086
-0.291644,0.0646528,-0.069695,0.102453,-0.0419283,0.143374
-0.0605045,0.000638623,-0.140885,0.134688,0.00735387,0.0253072
-0.0782185,-0.0312991,-0.0982333,0.0303853,-0.00404292,0.0404434
-0.245034,0.00394772,-0.0744573,0.075446,0.0333215,-0.0136749
-0.262777,0.226457,-0.157321,-0.029314,0.0449033,0.102134
-0.117507,0.397717,-0.10552,0.00728732,-0.0538436,-0.0463539
-0.027992,0.130431,0.0467296,0.0449345,-0.0680457,-0.0330114
-0.092032,0.116605,0.174501,-0.0416037,-0.0212502,0.0320182
-0.0566454,0.201759,0.0913038,0.0532483,-0.0425428,0.026002
0.122781,0.354939,-0.0192399,-0.0488194,0.0460802,0.0632774
-0.0660163,0.366772,0.0407126,0.00907704,0.00789696,0.0205416
-0.169199,0.310442,-0.0139416,0.0253926,0.011581,-0.0145411
-0.25674,0.136992,-0.0019175,0.0141559,-0.05562,0.00557363
-0.278966,0.26793,0.042676,-0.0268238,-0.0665683,0.0541415
-0.293037,0.357331,0.138794,0.000924706,-0.0447868,0.0210956
-0.548102,0.293654,0.131686,0.0412105,-0.0780486,0.0118549
-1.82725,0.248772,0.332452,0.0783456,-0.141017,-0.0392843
-2.83923,-0.1486,0.3535,0.0769815,-0.059208,-0.00477439
-1.91447,-0.0694398,0.327493,-0.0326166,-0.0251393,-0.019523
0.03364,-0.0485336,0.375238,-0.0586268,0.00694209,-0.0160205
-0.171304,-0.108007,0.435078,0.00489054,-0.0303034,-0.0479623
0.256493,-0.136009,0.478498,-0.02871,-0.00873482,0.0633566
0.279436,0.316363,0.515787,0.0294705,-0.0341212,0.0815551
0.32333,0.581352,0.635943,-0.032603,-0.134491,0.150615
0.518127,1.11125,0.880685,-0.0146601,-0.0409278,0.204931
1.27907,1.50238,0.97885,0.0582814,-0.101846,0.265371
1.37118,1.64608,0.739916,0.12352,0.000865035,0.0121221
0.800575,0.843008,0.0586223,0.105889,0.0777441,-0.143082
0.378622,0.598554,-0.207179,-0.0403134,0.036727,0.00402021
0.040667,0.250835,-0.636806,0.0725936,0.0315586,0.0610051
-0.147762,0.00307519,-1.10446,0.128285,-0.0767752,0.252567
-1.06776,0.756166,-0.476408,0.0264375,-0.247234,0.196188
-0.731139,1.62429,0.444157,-0.0481281,-0.167425,0.0587677
-1.71468,1.66965,0.701714,0.0805501,0.0442262,-0.246414
-1.83839,0.723606,0.00741777,0.0677931,0.122677,-0.313224
-1.22489,-0.531601,-0.941605,0.0896221,0.344463,-0.257645
-0.0799304,-0.798251,-2.13721,0.0432879,0.345586,-0.0672209
1.20378,-0.479662,-2.9046,0.124266,0.190591,0.0790886
-0.238282,-0.0623443,-3.09481,0.0979116,-0.0384268,0.141814
-1.50079,0.699576,-2.70192,0.147338,-0.289255,0.176051
-0.543478,0.770812,-0.978002,0.15556,-0.252549,0.0945252
-0.463214,0.160566,-0.0107028,0.291196,-0.359473,-0.160558
-0.565268,0.276739,-0.293574,0.00514379,-0.0010643,-0.0310356
-0.0726677,0.457436,-0.67684,-0.00573021,0.126468,0.0766009
-0.230605,0.235099,-0.753358,0.136185,0.0639053,-0.084071
-0.708983,0.233236,-0.403294,0.0304129,-0.0322616,0.0386252
-0.416342,0.319229,-0.372231,-0.0331138,0.0956072,0.0156638
-0.454258,0.3278,-0.470101,0.0547836,-0.00570869,-0.043022
-0.359816,0.219131,-0.390766,0.00146154,0.0455571,0.0288279
-0.0766289,0.514824,-0.303261,-0.0418327,-0.0366976,0.0857351
0.970037,0.21378,0.0461649,0.0933347,-0.159573,-0.251406
4.51316,-0.327713,1.08047,0.1037,0.424824,0.291459
3.63294,0.0548008,2.18046,0.016752,-0.464309,0.401692
0.851507,0.59643,2.55635,0.244487,-0.126508,-0.146648
-3.08395,0.564507,1.35113,0.329683,0.503909,-0.100005
-0.43468,0.709717,0.310281,-0.0269709,0.0555702,0.111868
0.221556,0.493115,0.449632,0.0134203,-0.134442,-0.0345945
-1.66062,0.267776,0.424248,0.0104583,-0.169995,0.14095
0.117141,0.143015,0.334232,0.192128,0.266375,-0.125085
0.226696,-0.165705,0.124849,-0.0153208,-0.0458872,0.105126
-0.290145,0.025244,-0.00219049,-0.00569236,0.0213814,-0.0449963
0.18001,-0.0570778,0.0289096,0.0214311,-0.0375688,0.0157614
-0.0735989,0.0484811,0.0730455,0.0093348,-0.0236585,0.019522
-0.126673,0.0112861,-0.0185315,0.0162164,-0.00769109,0.0531468
-0.0381346,0.078284,-0.0122369,0.0162297,-0.0446572,0.0411582
-0.0262745,0.0676273,-0.00781182,0.0258213,-0.0276415,0.0197903
-0.0241692,0.022921,0.00189938,0.0324019,-0.0254169,0.0109031
0.019294,-0.0441728,-0.0114662,0.0289541,-0.0210173,-0.0026952
-0.0103905,-0.0122266,0.0320672,0.00716496,-0.0164416,0.0307782
-0.0123568,0.00268899,0.0116948,0.0135039,-0.0185533,0.0209202
0.00933056,0.0175811,0.00443542,0.0090645,-0.0152825,0.0128067
-0.0111187,0.0346322,-0.00651795,0.00985128,-0.025718,0.00621253
0.0277008,0.0495075,0.00247757,0.0156043,-0.0253358,0.0278362
0.0180929,0.0154555,-0.00616137,0.0185488,-0.0124158,0.0258861
-0.0282947,-0.00365642,-0.0152185,0.0172902,-0.0240366,0.00826943
-0.0156404,0.0144249,0.0138191,0.0152576,-0.0170664,0.0035845
-0.0272645,-0.000451368,-0.0109099,0.0116761,-0.0280954,-0.00278336
0.00844739,-0.00899292,-0.0126383,0.0140273,-0.0183583,0.0153619
-0.0186055,0.000611275,-0.011878,0.0195403,-0.0345481,0.0169994
-0.00789807,0.0133867,-0.00318836,0.00278473,-0.0231124,0.00840616
0.00198194,-0.0111058,-0.0148371,0.0160269,-0.0379879,0.0202107
0.00841351,-0.000464827,-0.0104892,0.0124968,-0.00556368,-0.00215161
-0.00145545,0.000614388,0.00226025,0.0142435,-0.0304989,0.0205464
-0.0110802,-0.00576005,-0.00747541,0.0138326,-0.0212856,0.01195
0.0093497,-0.00471005,0.00346649,0.0174142,-0.0217395,0.00336134
-0.0144738,-0.00256219,0.00640935,0.0147294,-0.0339295,0.0128384
0.00502228,0.00807068,0.0023388,0.0148231,-0.0204025,0.00504512
0.000698334,-0.00575737,0.00338322,0.0124149,-0.0235637,0.0109248
-0.0133382,0.00703232,5.65592e-06,0.0107841,-0.0285203,0.0128818
-0.0100787,0.00171093,-0.00101895,0.0158406,-0.024671,0.00918806
-0.00360612,-0.00680551,0.00121011,0.0142328,-0.0225002,0.0105875
-0.00580415,-0.00467639,0.00439447,0.0138365,-0.0169373,0.00485504
-0.0230954,0.00811451,0.00204958,0.0101115,-0.0294659,0.0183424
0.000823112,0.000645834,-0.00945347,0.0144662,-0.0269627,0.0114484
-0.0100938,0.00384728,5.9275e-05,0.0157891,-0.0289557,0.0191782
0.0156866,0.0261858,0.014258,0.0184113,-0.0238816,0.0116203
-0.017814,0.00917512,0.0138902,0.019293,-0.0257657,0.00913113
0.00601365,-0.0121165,0.0120586,0.0126028,-0.0218423,0.00580138
0.00936724,-0.0312824,0.00354312,0.0123824,-0.0240722,0.00332963
0.0394916,-0.00469264,0.0156403,0.00660545,-0.0175967,0.00979412
0.0212484,-0.00893126,0.00259233,0.0140803,-0.0306063,0.0175942
0.00610913,-0.00785223,0.00242405,0.0152727,-0.0270066,0.00432181
0.00385663,-0.0174378,0.0120386,0.017401,-0.0158113,8.27312e-05
-0.000360397,-0.0152954,0.00129132,0.00689656,-0.0285236,0.0205114
0.00272244,-0.0216907,0.0173906,0.0207685,-0.0384318,0.00515372
-0.0437234,-0.0248471,0.0125866,0.00681925,-0.0248013,0.00268412
-0.0286387,0.00494803,0.0148718,0.00376177,-0.0170636,0.00648201
-0.0230697,-0.00143811,-4.76418e-05,0.00806785,-0.0258308,0.0104916
0.00391188,0.0134482,0.00346134,0.015065,-0.0159187,-0.00212729
-0.00792168,0.0070811,-0.00200787,0.0178875,-0.0251483,0.00493741
-0.000390437,-0.00996342,0.00344007,0.0186343,-0.0203379,0.00379467
-0.0198179,-0.0216613,0.00108541,0.0130844,-0.0254099,0.00877291
0.00174662,-0.00783263,0.0056087,0.0123346,-0.0270941,0.00906444
0.000680721,-0.023796,0.00561594,0.0142646,-0.0195053,-0.00536883
-0.0113161,-0.0205993,0.0151094,0.0163563,-0.0233791,0.00724375
-0.0414971,-0.0588945,0.00945412,0.0134116,-0.0384796,0.0105981
-0.0101749,-0.058917,0.0130231,0.0114809,-0.0180627,-0.00223637
-0.0100638,-0.0482639,0.001243,0.00447857,-0.0230116,0.00959134
0.00737467,-0.0184704,-0.0146532,-0.000368953,-0.0162544,0.0107943
0.025624,0.0134442,-0.00484588,0.0163,-0.0243711,0.00411487
0.00727187,0.00707032,-0.00719049,0.0134374,-0.0361599,0.00422353
0.0201003,-0.0152924,0.00904361,0.0192966,-0.0213013,-5.59092e-05
-0.00141487,-0.00249748,-0.00298756,0.00519741,-0.017934,0.0071466
0.0277653,0.0219642,-0.0037515,0.0105798,-0.021544,0.0085994
-0.00573182,0.0124063,-0.00519578,0.0191911,-0.0266215,-0.00182945
0.00821104,0.0241066,0.00459215,0.0109432,-0.0235449,0.00578839
0.00501958,0.0166585,0.000280104,0.017018,-0.0239983,-0.00375569
0.00496138,0.016667,0.00564556,0.0107505,-0.0269124,0.00488693
-0.00483334,0.00283032,0.0130382,0.0127315,-0.0216146,0.00728595
-0.00908371,0.00497107,0.00550153,0.00670803,-0.0291627,0.00146842
-0.000482938,-0.000365123,0.01095,0.0159938,-0.0211191,0.000916123
-0.0177509,0.00177524,0.00753736,0.00807554,-0.0229899,0.00388396
-0.00797089,0.00815925,0.00229217,0.0165855,-0.0255761,0.00349367
-0.0154506,-0.00353781,-0.00527014,0.00977826,-0.0277711,0.00828075
-0.00360193,-0.00248688,-0.000858771,0.0180575,-0.0317935,0.0070231
-0.0198117,-0.000344781,-0.00211408,0.0112171,-0.0219387,0.0058229
-0.0014616,-0.00354979,0.00131266,0.0121273,-0.0282264,0.0032835
-0.0111308,-0.00992683,-0.00414259,0.0107198,-0.0219579,0.00368905
0.00612159,0.00389825,-0.000747877,0.0115806,-0.0233958,0.00454223
-0.011078,-0.00673241,-0.00949913,0.0143228,-0.0280069,0.0035519
-0.0218387,-0.00352509,-0.0149719,0.0144,-0.0215858,0.00472391
0.025479,0.041141,0.00586202,0.00626051,-0.0177878,0.00260174
0.0418906,0.00494032,-0.00890706,0.0166945,-0.0211589,0.00869405
0.0200088,0.027303,0.013306,0.0132401,-0.0136032,0.00778615
-0.00268999,0.00816215,0.0141424,0.0162589,-0.0368642,0.0111575
-0.0284366,-0.0386502,-0.00109142,0.0144698,-0.0206392,0.0037806
-0.0349276,-0.0130965,-0.00333011,0.00362617,-0.0216698,0.00186467
-0.0154667,0.000722554,-0.00420029,0.0147272,-0.0301756,0.00226468
0.00513463,0.00922838,-0.0103949,0.0089764,-0.0210799,0.00506479
0.0202163,0.0198623,-0.00594974,0.0143733,-0.0273198,0.0120177
-0.0101128,0.0188161,-0.000942252,0.0143412,-0.0310326,0.00791579
-0.00477141,0.00391421,0.00663625,0.016577,-0.0241754,-0.000494361
-0.00467578,-0.0131166,-0.000842401,0.0117872,-0.0239246,0.00641626
-0.00900914,-0.00565816,-0.000893782,0.0110621,-0.0246843,0.0061295
-0.000330818,0.000717821,-0.00402058,0.0101727,-0.0214668,0.00474691
-0.000316544,-0.0141819,-0.00400215,0.0112994,-0.0254512,0.0108786
0.0102689,-0.000354162,0.0164512,0.0136193,-0.0167195,-0.000690103
-0.012317,0.0028574,0.00441234,0.0077641,-0.02617,0.00663757
0.0200644,-0.0195225,0.012296,0.0208369,-0.0221573,0.00178498
0.00279392,-0.0269586,0.00996858,0.00781459,-0.0227365,0.00895607
0.0157168,-0.00781138,0.0133047,0.0136467,-0.0257947,0.0129861
0.000746341,-0.00779282,-0.00292141,0.0130816,-0.0268195,0.00887108
0.0104335,-0.0184512,0.00254581,0.00796109,-0.0278001,-0.00107229
-0.00251482,-0.00140451,-0.00189474,0.0071063,-0.0238818,-0.00142646
-0.0111477,0.0156317,-0.00522469,0.0102855,-0.0243779,0.00232196
-0.00454646,0.0113818,-0.0158399,0.0109873,-0.0278255,0.00840604
-0.00558626,0.0262846,-0.0212224,0.0107229,-0.0250007,-0.0023762
-0.00559369,0.0241484,-0.0201587,0.0169829,-0.0244062,-0.00784028
0.0440944,0.0166618,-0.0142312,0.0138427,-0.0173036,-0.000843525
0.0344439,0.00283374,-0.0207496,0.011664,-0.0269442,0.0151162
-0.012055,0.0305453,-0.0234445,0.00455296,-0.0337514,0.0318573
-0.0261862,0.0273599,-0.0161072,0.0175458,-0.0235681,-0.00320947
-0.00562397,-0.00246031,-0.0147736,0.0142554,-0.0155215,-0.00603414
0.0214659,-0.0280251,-0.0176516,0.016418,-0.0234412,0.00516403
-0.00343653,0.00605492,-0.017969,0.00334477,-0.0248907,0.0270513
-0.0197667,0.028417,-0.00961237,0.0169409,-0.0341469,0.00444347
0.000804221,-0.0226866,-0.00717909,0.0157436,-0.0165036,-0.00219202
0.0484313,-0.0195255,-0.0119943,0.0168364,-0.0213,0.00773662
-0.0206927,-0.00563386,-0.0213565,0.00557858,-0.0327491,0.0410392
-0.0327769,0.0284332,-0.00653823,0.0184969,-0.0314206,-0.00654519
-0.00577024,-0.00351994,-0.000844318,0.0115736,-0.0132648,-0.0154316
0.0506049,-0.0535877,-0.00979098,0.0191752,-0.0269933,0.00655866
-0.00573892,0.0103173,-0.00514287,0.00354254,-0.036641,0.0387655
-0.0123982,0.0379892,0.00866657,0.0227568,-0.0195473,-0.00942129
-0.0243799,-0.0205458,0.0225147,0.0144477,-0.0344233,-0.0165141
0.0318397,-0.0599749,0.027472,0.0146682,-0.0292375,-0.00624585
0.0115196,-0.0386593,0.00367155,-0.000336051,-0.0133818,0.0164553
-0.00148926,0.0528883,-0.0019294,0.00244004,-0.021826,0.0334245
-0.0317478,0.0699441,-0.00549967,0.0164694,-0.0281417,-0.00102866
-0.030674,0.0326856,-0.00116816,0.0127594,-0.0293733,-0.0224639
0.0191465,-0.0184388,-0.00375785,0.0165256,-0.0203677,-0.018333
0.0602087,-0.0152785,-0.00115708,0.0114424,-0.0215318,0.00612903
0.0526073,0.00495725,-0.000185452,0.0178241,-0.0221354,0.0191866
0.00405186,0.0177633,-0.0114632,0.0100874,-0.0346209,0.0342691
-0.0579363,0.0720937,0.0166956,0.0214939,-0.0116898,0.0152574
-0.060975,0.0135493,0.00279388,0.00856578,-0.0340352,-0.00475234
-0.0134243,-0.00883359,0.00764662,0.00837797,-0.00787854,-0.0339469
0.0483562,-0.0354878,-0.00340496,0.00327039,-0.0250562,-0.000904322
0.092849,-0.0291313,-0.0189699,0.00935924,-0.0167795,0.00726676
0.0614854,0.000697704,-0.0214958,0.00947064,-0.0258682,0.0348397
0.0009943,0.020967,-0.0296989,0.0231011,-0.0326847,0.0389786
-0.0542254,0.0178177,-0.0228197,0.0174093,-0.0147185,-0.00205034
-0.0588339,0.000776124,0.00604645,0.011248,-0.0456195,-0.00654709
-0.0263961,-0.0343714,0.00966675,0.00646091,-0.0181565,-0.0300624
0.03079,-0.026963,0.0210172,0.00555629,-0.0220867,-0.00942028
0.0874075,-0.0387083,-0.0147388,0.0071671,-0.013657,0.00393873
0.0830553,0.0102633,-0.0169749,0.0104537,-0.0205837,0.0273908
0.0192767,0.0731188,-0.0252507,0.0129914,-0.0335706,0.042681
-0.0262904,0.0954956,-0.0129499,0.015394,-0.0236669,0.00879979
-0.0598393,0.0572051,-0.0068588,0.0219693,-0.0293525,-0.00795901
-0.0730073,-0.00666061,0.0176801,0.0135376,-0.0310514,-0.0152428
-0.0481842,-0.0407382,0.0254971,0.00453889,-0.0229287,-0.0183185
0.00928252,-0.0322676,0.0100705,0.000844479,-0.0171213,0.00923431
0.0232459,0.0166821,0.0144576,0.0209627,-0.00689596,0.0326179
0.0321491,0.0422332,-0.01223,0.0181583,-0.0175418,0.0334969
0.0213063,0.02734,-0.00805215,0.0254281,-0.0309556,0.000550985
-0.00766825,-0.0258491,-0.0243776,0.0174194,-0.0329428,-0.000517726
0.0095221,-0.0375816,-0.0124031,0.00765032,-0.0325871,-0.00518262
-0.00330443,-0.0844098,-0.0221433,0.0213006,-0.0144864,-0.000201464
0.0162716,-0.0759018,-0.0337031,-0.000867426,-0.0269521,0.019548
-0.00461776,0.0124582,-0.00940027,0.0152845,-0.0186569,0.0224214
-0.0337354,0.0263187,-0.0183112,0.0138477,-0.0359736,0.00811386
0.00489885,0.0145746,0.0110487,0.0154796,-0.0172514,-0.0139211
0.0535373,0.00921761,0.0137488,0.0130075,-0.0156388,-0.00470018
0.0330442,0.0252041,0.00708004,0.010909,-0.0283942,0.0227573
-0.00913686,0.038008,0.00658831,0.00921017,-0.0240458,0.0119486
-0.000487838,0.0390654,0.00668447,0.0100841,-0.0238497,-0.00112033
0.00493269,0.0145741,0.00783535,0.0127007,-0.0182572,0.00205731
0.0442902,0.0358224,0.0682247,0.0194271,-0.01954,0.00837386
-0.0441068,-0.0119848,-0.056937,0.00956786,-0.0550683,0.0562429
-0.0901953,-0.0194123,0.00787018,0.0320398,-0.0122478,-0.0220996
0.00281778,0.0347991,0.00136316,-0.0163183,-0.0123563,0.00658447
0.0073459,-0.0237425,-0.0124422,0.0357369,-0.0380124,0.000729918
0.0168393,0.0113784,0.00691052,0.000654995,-0.00928438,0.0112447
0.0115778,0.00074183,-0.00598599,0.0254338,-0.0298112,0.0137576
-0.00471388,0.00713686,0.000244666,0.00785148,-0.0211462,0.0110523
-0.0078459,-0.0141519,-0.00834058,0.0209723,-0.028309,0.00246346
0.0201334,0.0167006,0.00159017,0.00455087,-0.0189115,0.00104809
-0.00570401,-0.0162814,-0.00617082,0.0172731,-0.0333418,0.0145713
-0.017584,-0.0301101,-0.00629094,0.0115114,-0.0257072,0.00246203
-0.00468558,-0.00989463,-0.000809271,0.00998914,-0.0182871,0.00271887
-0.00245929,0.00500631,-0.00829616,0.0125807,-0.0259543,0.00758052
-0.00349284,-0.00883137,-0.0115079,0.015444,-0.0290576,0.0150528
-0.0294293,-0.0109412,-0.0128708,0.00997382,-0.0260001,0.00921381
0.0318228,0.0305265,0.0199127,0.00804359,-0.0167599,0.00151736
-0.0143598,-0.000303194,-0.00734953,0.0171999,-0.0335516,0.00920439
-0.0134171,0.00395098,0.00550594,0.00972927,-0.02589,0.00540978
0.0254583,0.0198875,0.00914158,0.00661182,-0.0167761,0.000362277
0.0116503,0.00606787,-0.0134831,0.0139931,-0.0296112,0.00964892
0.0190637,0.0039333,0.00159773,0.0207067,-0.0324438,0.0106978
0.00721342,0.00606871,-0.00282582,0.0108961,-0.0201451,0.0122674
-0.00469439,-0.00137768,-0.000816231,0.0133399,-0.0302418,0.00758111
-0.0295172,-0.0237172,-0.00322266,0.00883961,-0.0240209,0.00392538
-0.0132023,-0.0205281,-0.0126708,0.00954866,-0.027141,0.00188309
-0.0371491,-0.018382,0.00205015,0.00902987,-0.0255619,0.0024001
-0.0273696,0.000771289,-0.00428427,0.00980645,-0.0119432,0.0118359
0.00388213,0.0262953,0.00354191,0.00639898,-0.0334605,0.0135107
-0.00366527,0.00607141,0.00347054,0.0155643,-0.0161243,-0.00492275
-0.019861,-0.00562577,0.00222751,0.014997,-0.0260934,0.0119669
-0.0243001,-0.00455524,0.0128904,0.0113596,-0.0246928,0.0057168
-0.0362241,-0.00774095,0.0159702,0.0209235,-0.0212612,0.00504726
-0.0243179,-0.0205221,0.0161193,0.0130302,-0.0259399,0.00826287
-0.0503505,-0.0151861,0.0233094,0.019258,-0.0252093,0.00190961
-0.0178585,-0.0482049,0.0215727,0.00470746,-0.023872,-0.00126457
-0.00787193,-0.0460783,-0.00294435,0.00481522,-0.0177759,-0.00581193
-0.00581292,-0.00988906,0.00346826,0.00361151,-0.0271587,0.00554919
0.040802,-0.00885387,-0.00777979,0.0161709,-0.0131144,0.00215924
0.0417292,-0.00034179,0.0061424,0.0182561,-0.0343513,0.0177033
-0.0093682,0.0103334,0.0312494,0.0228789,-0.0412198,0.00348914
-0.00803591,-0.0833397,0.0163632,0.0213929,-0.0143966,-0.0078786
-0.092192,-0.0523997,-0.00496057,-0.00201082,-0.0302485,0.0139357
0.0447362,0.0347793,0.0254158,0.00727218,-0.0141011,-0.0141499
0.0462908,-0.0248208,-0.014123,0.0183621,-0.0140715,-0.00174832
-0.00776335,0.0454754,-0.0223003,-0.00438094,-0.0393977,0.0460904
0.0188162,0.0720564,0.018661,0.0271386,-0.0184641,-0.0298903
0.0376336,-0.0280114,-0.0131515,0.0208471,-0.0217751,-0.00647402
-0.0163121,-0.00987392,-0.0266312,-0.00115705,-0.0385807,0.0482697
0.0114377,0.0710063,0.000381694,0.018293,-0.0140533,-0.0178579
0.024691,-0.00458136,-0.0186737,0.0217583,-0.0101147,-0.00689912
-0.0291529,-0.0109204,-0.0396176,0.00247318,-0.0432853,0.0329607
-0.00394107,0.0667519,0.0237651,0.0200558,-0.0121998,-0.024554
0.0354235,-0.024819,-0.00889878,0.0172156,-0.0161204,-0.00487769
-0.00664535,-0.00136672,-0.0211765,-0.00584704,-0.0298614,0.031352
0.00482652,0.0507767,0.0142383,0.0217637,-0.0223206,-0.00689602
0.0224274,-0.00352046,-0.00906749,0.0095315,-0.0120624,0.000485897
0.010736,-0.0269253,-0.0263079,0.013997,-0.0362193,0.0272316
-0.025325,0.0284467,0.00428117,0.0158759,-0.0199975,0.00228268
0.010269,-0.00777377,0.0164989,0.0242836,-0.0250063,0.0143554
-0.0479462,-0.0236911,0.000868627,0.0145341,-0.0367813,0.0413117
-0.075329,0.0380572,0.0283312,0.02411,-0.024111,0.0076251
-0.0405844,-0.0183783,0.0202209,0.0167593,-0.0247,-0.00987649
0.0157678,-0.0343829,0.0101695,0.00554478,-0.0207841,-0.0238595
0.0398049,-0.0940054,-0.00770057,0.0120667,-0.0295681,-0.0207738
0.0875504,-0.119584,-0.0210529,0.00476962,-0.010197,-0.0198128
0.137492,-0.111103,-0.0408438,0.00250649,-0.0244402,-0.00230074
0.152564,-0.0451195,-0.0407407,0.00505888,-0.0102009,0.0321575
0.057351,0.0624669,-0.0462036,0.0141962,-0.0265176,0.0525916
-0.031742,0.0923217,-0.00870451,0.0290512,-0.0265298,0.0551476
-0.120595,0.014677,0.0160656,0.0333175,-0.0294951,0.0144926
-0.163156,-0.0417148,0.0584734,0.0134052,-0.0268058,0.0147154
-0.222762,-0.115128,0.0782089,0.0148476,-0.0322639,0.00877148
-0.271786,-0.150225,0.11624,0.00727212,-0.0172294,0.0191113
-0.316207,-0.194903,0.128629,0.00616157,-0.0211292,0.0102809
-0.332446,-0.218312,0.132749,-0.00103045,-0.0169301,0.00601172
-0.278442,-0.183226,0.135466,-0.00555253,-0.00812739,0.00163651
-0.25708,-0.143861,0.157085,0.00738096,-0.0184537,-0.004794
-0.206825,-0.226911,0.115985,0.0192823,-0.000504732,-0.0286992
-0.160289,-0.202462,0.110063,0.00882864,-0.0145931,-0.0515746
-0.0222711,-0.184458,0.043073,0.000286162,-0.0246109,-0.0336475
0.0233171,-0.0599355,0.0145648,-0.017859,-0.0181437,-0.0206447
0.11523,0.0315489,0.00588655,0.00612628,-0.0359529,-0.0239693
0.147106,0.0379256,-0.0440816,0.00651753,-0.0256705,-0.0186199
0.163304,0.0474899,-0.0428415,0.0144989,-0.038783,-0.0229572
0.164668,0.00277728,-0.0652794,0.0162717,-0.0327402,-0.0270859
0.142171,-0.00677611,-0.0847911,0.00999159,-0.0271469,-0.0115042
0.143465,0.0145226,-0.107277,0.0110449,-0.0209443,-0.0113477
0.133675,0.0294263,-0.103126,0.0188676,-0.0317188,0.0048328
0.112997,0.029442,-0.0905067,0.018625,-0.0372024,0.009978
0.053499,0.047581,-0.0901288,0.0250995,-0.043689,-0.000140011
0.0920338,0.079478,-0.0554604,0.0179327,-0.0253261,0.0270945
0.104417,0.100743,-0.000736159,0.0260116,-0.0148249,0.0185009
0.0168198,0.0507749,0.0047436,0.0240878,-0.0219091,0.012975
-0.0135115,0.0177967,0.0129983,0.0198734,-0.0456868,0.0199417
-0.024574,0.0103485,0.0375084,0.000951469,-0.00905985,0.0192027
-0.0526767,0.0231434,0.035036,0.00278413,-0.00882334,0.0280696
-0.114139,-0.0119337,0.0215277,0.0145054,-0.0234098,0.0205787
-0.207106,-0.0767969,0.0248234,0.00622422,-0.0214923,0.0202436
-0.197757,-0.074683,0.0613332,0.00833458,-0.0224697,0.0206568
-0.217355,-0.0736055,0.0739611,0.00359565,-0.0181415,0.0274428
-0.280407,-0.070371,0.105369,0.00524187,-0.0150755,0.0280797
-0.186825,-0.0736551,0.153531,0.0226834,-0.0583273,0.0130893
-0.0910539,-0.207861,0.2115,0.0599548,-0.0466428,-0.051237
-0.349697,-0.324743,0.138018,0.0283054,-0.0195794,-0.116068
-0.216577,-0.317385,0.126672,0.024901,-0.060831,-0.0312397
-0.293466,-0.316239,0.0337192,-0.000378728,-0.0766342,-0.0154508
-0.210018,-0.202374,-0.0982225,-0.000567019,-0.0212791,-0.0623794
-0.0801354,-0.0864079,-0.224278,0.00475633,-0.0743185,-0.0767747
0.0256764,-0.00451992,-0.216731,0.0739544,-0.118113,-0.0717996
-0.0329138,-0.0502856,-0.0899394,0.147727,-0.121991,-0.0623217
-0.356161,-0.605678,-0.147652,0.155543,-0.0958913,-0.0807868
-0.0486219,-1.02233,0.679618,0.0344074,-0.480689,-0.119088
-0.588996,-0.849737,1.66803,0.144169,-0.105027,0.172799
-0.862589,-0.207964,2.84851,0.157764,-0.253063,0.266834
0.928602,1.06989,0.300079,-0.0167917,-0.0988535,0.114454
-1.683,0.58968,0.045053,0.147617,-0.453944,-0.352253
-0.0667671,-0.111933,0.0490621,0.0455952,0.0859657,-0.155728
0.892185,-0.0903751,0.378971,-0.0168291,-0.0436037,0.0171588
-0.303544,-0.0223947,0.243301,-0.00982171,0.00277081,0.0376533
-0.119753,-0.00650652,0.0387241,-0.0270694,0.0502611,0.0495387
-0.0519954,0.0669097,-0.0366033,-0.0348641,0.0183352,0.0230333
-0.0558109,0.105248,-0.0891481,-0.0138218,0.00109015,0.00330341
-0.133284,0.0169333,-0.0139198,-0.00585693,-0.0737912,-0.0819403
-0.05802,-0.0863877,0.0373596,-0.00299287,-0.0339146,-0.0382593
-0.0915698,-0.0661389,0.0380294,-0.0314781,-0.0029054,0.0162654
-0.0926762,0.0147632,0.032584,-0.026764,0.0069937,0.0241076
-0.107182,0.020114,-0.0286138,-0.01623,0.00271444,-0.0129634
-0.0803554,0.00198852,-0.00688305,-0.0143555,-0.025455,-0.0346004
-0.0328207,-0.0267814,0.000117651,-0.0129989,-0.0103652,-0.0285442
0.00504607,-0.00445854,-0.00376339,-0.0239699,-0.00673579,-0.00871968
0.0277191,-0.00553813,-0.000290168,-0.0122009,-0.0127771,-0.00455725
0.0147001,-0.00659223,0.0038486,-0.0103508,-0.0217434,0.000723779
-0.00611297,0.0178949,0.0271381,-0.0184381,-0.0223256,-0.000194848
0.0209558,0.0136185,0.0242376,-0.0189074,-0.0125889,-0.0236471
-0.0132701,-0.0246687,-0.00823377,-0.0121896,-0.00900728,-0.0055775
0.0139795,-0.0087143,-0.0304236,-0.0213811,-0.0304869,0.00384408
0.00397363,0.00831975,-0.00592531,-0.0153242,-0.0217317,0.00511545
-0.0188273,0.00300935,0.00345495,-0.0158526,-0.0188283,-0.00389206
-0.0165583,-0.00337388,-0.00614596,-0.0173376,-0.0162112,0.000367582
-0.0209228,0.00301347,-0.00299193,-0.0151495,-0.0187498,-0.00870878
-0.0165125,-0.00443759,-0.0104277,-0.0199826,-0.0195994,-0.00749362
-0.010157,0.00513211,0.00140925,-0.0175382,-0.0179011,-0.00438797
0.0157589,0.0168209,0.00383194,-0.0189986,-0.015148,-0.0064165
-0.014382,0.00620063,-0.00827809,-0.0103424,-0.00664541,-0.00126868
-0.0220365,0.0125958,-0.00087024,-0.0214561,-0.0132729,-0.0101974
-0.0330408,0.016846,0.017189,-0.00666165,-0.012744,-0.00708824
-0.039327,-0.00761779,2.30204e-05,-0.0202691,-0.0137697,-0.0129258
-0.0338672,-0.016138,-0.00419152,-0.018101,-0.00271904,-0.00802296
-0.0619429,-0.0182493,-0.00772475,-0.017941,-0.0168736,0.000217378
-0.0576947,-0.00973349,-0.00125448,-0.0152429,-0.0157581,-0.00295907
-0.0523222,-0.00973767,0.00201933,-0.0125846,-0.0111599,-0.0200191
-0.0512668,-0.0171918,0.00524924,-0.0199189,-0.016425,-0.0101225
-0.0360861,-0.0161356,0.00113967,-0.016593,-0.0110283,-0.010124
-0.0306258,-0.00336345,-0.00523424,-0.021224,-0.0168714,-0.00911945
0.0254819,0.000853888,0.00610912,-0.0134196,-0.00586325,-0.0213119
0.0525768,-0.005558,0.00106062,-0.0132334,-0.00886512,-0.00235075
0.0483596,-0.00129489,-0.00969933,-0.0233838,-0.0238278,-0.00159878
0.0071423,0.0157692,0.000530263,-0.00958067,-0.0206509,0.0077672
0.00913004,0.0232127,0.0166034,-0.0171748,-0.0259907,-0.0172204
0.0662808,0.0221006,0.0322401,-0.0106125,-0.00603627,-0.0182553
0.0710511,-0.00982486,-0.00728846,-0.0183598,-0.0103418,-0.0129539
0.0334467,-0.0140489,-0.030195,-0.0196838,-0.0194865,0.01601
0.0135324,0.0466295,0.0069929,-0.0243943,-0.0246284,0.00483984
0.0363114,0.0412899,0.000829211,-0.0197541,-0.00512846,-0.0113581
0.0254719,0.0242629,0.00500299,-0.0107548,-0.0166887,-0.0137174
0.00932147,-0.000202485,0.000566837,-0.0158542,-0.0356165,-0.00335056
-0.112989,-0.0480199,0.0163568,0.0180563,-0.0405203,0.000587881
-0.410067,-0.201075,0.00244202,-0.0246779,-0.0627266,-0.0442556
-1.07829,-0.432593,-0.187999,-0.0198204,-0.165952,-0.0829217
-0.699695,0.0567457,-0.0396445,-0.0887856,0.0505908,0.0134806
0.975595,0.440818,0.106379,-0.126853,-0.0160509,-0.0221834
0.413782,0.21767,0.183746,0.172698,-0.213225,-0.231167
0.806164,-0.0529241,-0.0856452,-0.00602835,0.00370169,-0.0320216
0.883168,-0.0519579,0.0993971,-0.0570992,-0.0389481,0.0508842
0.285353,0.0421059,0.279903,-0.0532985,0.0524277,0.0922486
0.745923,0.264268,0.163908,-0.00744146,0.0731191,0.0767605
0.572641,0.316573,0.0805153,-0.0596573,0.0618191,0.0246196
0.539478,0.35602,-0.0612325,-0.0571979,0.0966187,-0.0229064
0.58715,0.230401,-0.161219,-0.0685485,0.0386489,-0.0522462
0.246458,0.142332,-0.250639,-0.125495,0.0285889,-0.00413656
0.814534,0.356867,0.00505789,0.0272528,0.0751947,0.001109
0.339396,0.0134536,-0.232334,0.097509,0.0740972,-0.0206591
0.182068,-0.284398,-0.566818,0.0373691,-0.00334246,0.0140477
-0.245502,-0.283079,-0.31897,0.0216095,-0.079726,0.0773218
-0.146225,-0.165074,4.58872e-05,0.0179944,-0.0896444,0.0888299
-0.174327,-0.104431,0.19989,0.0411991,-0.0767443,0.077954
-0.214295,-0.0469387,0.293611,-0.046006,-0.0637341,0.0564017
-0.128793,0.108359,0.478585,-0.0380721,-0.0116923,0.0259154
-0.294906,-0.0266791,0.348342,-0.00297201,0.045882,-0.0234946
-1.48268,-0.492965,-0.18609,0.00171846,-0.096643,-0.0754532
-0.882712,-0.477443,-0.16967,-0.0288258,-0.0724394,-0.00834882
-0.314919,0.0191781,0.0857481,-0.119879,-0.0165178,-0.0397726
0.120864,0.245516,0.375275,-0.0465915,0.0153144,-0.0832922
0.366826,0.123969,0.443496,0.0641059,0.020769,-0.161581
1.17681,-0.166042,-0.0492157,-0.022051,0.0482361,-0.00414997
-0.147607,-0.192624,-0.486048,-0.0384431,0.0309722,0.0726482
0.405926,0.0411036,-0.289416,-0.083884,-0.0317376,0.047903
0.0372916,0.0988068,-0.0987792,0.0127416,-0.101944,-0.0473055
0.291577,0.0517814,-0.109777,0.0157321,-0.0332559,-0.00290143
0.309689,0.076241,-0.0860449,-0.0266199,-0.0312469,0.0219236
0.202102,0.0699276,-0.034783,-0.0112644,-0.0159625,0.0336388
0.0822375,0.0625658,-0.0500566,-0.0105371,-0.0194927,0.0148128
-0.0193334,0.0637075,-0.0576319,-0.0210528,-0.0223224,0.0239049
0.0828835,0.158333,0.0858379,0.028944,-0.0192558,-0.00751746
0.111008,0.0721127,-0.0101259,-0.034147,-0.0153338,-0.00340885
0.00975475,0.065781,0.0561853,-0.00922388,-0.00389589,0.0162209
-0.0490261,0.0264579,-0.00653979,-0.022338,-0.0152563,0.00203884
-0.055806,0.00516807,0.0233873,-0.0140388,-0.00679143,-0.0243328
-0.0424693,-0.0437973,-0.00639051,-0.0151884,0.00184579,-0.0144333
-0.0632372,-0.117213,-0.0815061,-0.00163049,-0.0147779,0.0163885
0.000310577,-0.00977893,0.0358157,-0.031199,-0.0468522,0.00511312
-0.0349347,0.0306862,0.0932006,-0.0262716,-0.0153344,-0.00834584
-0.000689031,0.0317383,0.0239847,-0.0183186,0.00863592,-0.000298023
-0.0361376,0.0445475,1.89003e-05,-0.0200921,-0.0127479,0.00705159
-0.154579,0.160648,0.0435299,0.0317262,-0.000901416,0.00562418
0.998785,0.162925,0.294289,-0.0599293,0.0465588,-0.141282
0.239101,-0.437807,-0.214818,-0.0467343,-0.0197588,-0.0156238
-1.03053,-0.306957,-0.424205,-0.0439318,0.0225075,0.0938566
0.675489,0.100439,-0.0133944,-0.0677757,-0.0461338,0.100234
-0.207243,0.23521,0.00538482,-0.0221453,-0.0879548,-0.0105734
-0.443763,-0.0360534,0.00297437,0.0478114,-0.0732721,-0.0262225
0.200943,0.0858356,0.178254,-0.0497509,-0.00320332,-0.0518382
0.235589,-0.0621481,0.188436,0.183261,-0.0348918,0.0865518
0.183756,-0.0365317,0.0754007,-0.0815426,0.0342851,-0.0433949
-0.333236,-0.115941,-0.114546,0.0734221,-0.0267568,0.0233095
0.244289,-0.139804,-0.015891,-0.0830402,-0.051347,-0.0423551
-0.687239,-0.0933334,-0.0789593,0.0902604,-0.058157,0.0552806
0.20004,0.0613682,0.163292,-0.0487287,-0.00503977,-0.0960032
-0.131297,-0.375836,-0.0627531,0.0983483,-0.0516821,0.0954692
-1.99947,0.0663082,-0.354168,0.0408859,-0.0399261,0.160173
1.12313,0.377838,0.377935,-0.0795916,-0.0996549,-0.273484
-0.0302019,-0.133272,0.173712,0.157867,-0.031968,0.0763795
0.526216,0.0930231,0.301862,-0.0172745,0.0934361,-0.00857836
0.121165,-0.152412,-0.339569,0.0502027,-0.0741211,0.0861901
0.198666,0.127409,-0.0220294,-0.0265803,-0.0016188,0.0336366
-0.0132162,-0.0554976,-0.114186,0.0975325,-0.112888,0.0569766
0.26727,0.103901,0.141524,-0.0356259,-0.0311276,-0.0395848
-0.24338,-0.00957962,-0.0311848,0.0840036,-0.0474475,0.0245605
0.262257,0.0357829,0.110479,-0.07545,0.0117623,-0.101278
-0.305152,-0.071273,-0.0125444,0.0797691,-0.0236685,0.0738342
0.331296,0.0953422,0.120842,0.00949633,0.0247312,-0.048853
0.0499468,-0.226915,-0.140068,-0.0564932,-0.0729308,-0.0194165
-0.0671676,0.151001,0.0616632,0.00653255,0.0424317,0.0614392
0.0478949,-0.191784,-0.154047,-0.0926548,-0.0835513,-0.0894508
-0.997989,-0.17508,-0.0331464,-0.0166822,-0.0279336,0.0956354
-0.664857,0.106766,-0.0671262,-0.0118427,0.03492,-0.0443504
0.0740254,-0.185441,-0.0681033,-0.0417699,-0.0408553,-0.0832103
-0.0762635,-0.126806,0.027576,0.000156701,-0.00236371,0.0720317
-0.296769,0.152255,-0.00839051,0.0798402,0.012851,0.0283443
0.943602,0.0714478,0.202747,-0.0868003,-0.0412259,-0.147021
0.145809,-0.0865049,-0.0138419,0.00737828,-0.0486208,0.110352
0.22368,0.219956,0.162332,-0.0142341,0.0966962,0.0645138
-0.0786492,-0.149087,-0.259384,-0.134878,-0.108022,-0.0446183
-0.291016,0.168168,0.164038,0.0108035,-0.0224148,0.0134083
0.297675,-0.0748996,-0.0603202,-0.117627,-0.0401749,-0.0699589
-0.682482,-0.0571296,-0.123906,0.0790491,-0.0586473,0.163409
-0.361585,0.156534,0.0883043,-0.0333042,-0.0131458,-0.0583745
0.0412534,-0.131133,-0.0417564,-0.0264006,-0.0409036,-0.098062
0.163423,-0.0460889,0.0559108,0.00538623,0.0183028,0.0465238
0.0836178,-0.081128,-0.064881,-0.0151213,-0.0255794,-0.0111906
0.0406543,0.0572958,-0.10619,-0.045515,-0.0276642,0.0378726
0.165989,0.16253,0.1007,0.00735223,-0.0220636,-0.00774586
0.178953,0.128455,0.105162,0.042542,0.0204657,-0.00802881
0.448164,0.146356,0.108199,-0.017752,-0.0208667,-0.0651105
0.863958,0.11623,0.162191,-0.0475329,0.0162479,-0.049726
0.983231,-0.110536,-0.0535927,-0.0713362,-0.000506848,-0.0210921
-0.274404,-0.322455,-0.240016,0.0944154,-0.0151689,0.0685027
-0.39888,0.139687,-0.480639,-0.00160837,0.00490242,0.113869
0.755359,-0.0837731,0.0187526,-0.0874803,-0.25885,-0.270403
-0.388872,-0.0457056,0.132094,0.0419455,-0.0580854,0.0615168
0.47178,0.0388167,0.135336,-0.0902666,0.00573552,0.0294142
-0.315749,-0.195807,-0.0211094,0.043568,-0.0818313,0.0496647
-1.69186,-0.0542412,-0.183525,0.0341356,-0.0180762,0.0522678
-1.13547,0.0113342,-0.140883,-0.0206642,0.0194261,-0.166307
0.715089,-0.0167421,0.244149,-0.0385979,-0.0233594,-0.00941819
0.613094,0.139804,0.262111,-0.0239916,0.0207455,0.0354653
0.532843,-0.0261526,0.0932596,-0.156294,-0.0108445,-0.008618
-0.0354244,-0.274749,-0.140983,-0.00703132,-0.00379446,0.0424182
-1.40329,-0.284235,-0.767861,0.0186026,-0.0965838,0.127986
-1.66144,-0.0979306,-0.089985,0.0636628,-0.242228,-0.107912
-0.0327622,0.0773592,0.708836,0.113733,0.0165405,0.00775158
0.884488,0.297099,0.456693,-0.105274,0.0106629,0.0598015
0.445464,0.492148,0.747049,-0.0226921,0.0530197,-0.0017494
0.269333,0.347588,0.437898,-0.0526885,0.178794,-0.0763991
-0.236091,-0.128709,-0.406806,0.0637765,0.0878107,-0.177315
-3.14915,-1.4036,-1.64417,0.187748,-0.256412,-0.0919728
-0.97824,-1.41921,-0.974989,-0.0667058,-0.257671,0.0350232
-0.472509,-0.345999,0.817773,-0.181538,-0.208991,0.0731565
-0.1429,0.0241173,1.11238,-0.0241439,0.0395831,0.195539
0.095095,0.129439,0.679192,-0.0628914,0.134888,0.121066
-0.579154,0.224791,0.205693,-0.106633,0.180934,0.110544
-0.0115421,0.503373,-0.225005,-0.0461869,0.260329,0.075999
0.502886,0.515947,-0.921579,0.0338075,0.11086,-0.0153668
0.479822,0.203073,-1.1678,0.119098,0.0576337,-0.161687
1.71493,-0.158639,-1.35688,0.151349,-0.0768011,-0.102193
1.37734,-0.370252,-1.2138,0.133916,-0.204587,-0.0132576
0.543244,-0.380427,-0.661119,0.0701646,-0.231098,0.0619357
0.0460659,-0.268416,-0.178616,0.00288779,-0.238953,0.154653
-0.0488841,0.164725,0.483729,-0.0457776,-0.29447,0.226306
-0.0126752,0.67327,1.41944,0.0547915,-0.314902,0.166343
-0.944788,0.917622,1.80695,0.119979,-0.171624,0.102384
0.122375,0.890322,1.41005,0.0428493,0.0644674,0.00530481
-0.6622,0.599348,0.976371,0.366377,0.139115,-0.0678829
-0.545596,0.380164,0.290516,-0.109474,0.191829,-0.147945
-0.562572,0.0512764,0.187851,-0.043165,0.144876,-0.157483
0.204819,0.0656368,0.119446,-0.114796,0.252046,-0.162596
1.13865,-0.171277,-0.226293,-0.0499817,0.211424,-0.134824
1.61379,-0.429173,-0.448722,0.083926,0.184619,-0.0787175
1.02637,-0.843682,-1.2141,0.166016,0.079219,0.0273858
0.398262,-0.910123,-1.84431,0.200383,-0.0489771,0.132027
0.462748,-0.853732,-1.91537,0.161841,-0.158178,0.156594
0.198452,-0.65137,-1.58236,0.11804,-0.219172,0.148914
0.194254,-0.322627,-0.901758,0.0526118,-0.250082,0.162354
0.147748,0.0764093,-0.215275,0.000386894,-0.264492,0.139878
0.353486,0.268689,0.671266,-0.0554895,-0.376586,0.159177
-0.348553,0.721268,1.99484,0.0457002,-0.466053,0.248595
-2.28765,1.24395,3.30862,0.431879,-0.193833,0.197554
-0.35643,1.05975,2.09506,0.285003,0.20246,0.0477884
-0.862432,0.595209,1.09724,0.193793,0.20338,-0.0698453
-1.11075,0.415583,0.765898,-0.0623974,0.434244,-0.133315
-0.0215603,0.156299,0.0429073,-0.0640624,0.491085,-0.224284
0.854124,-0.250774,-0.724109,-0.008008,0.401528,-0.219037
0.264044,-0.782387,-1.43051,0.134817,0.222679,-0.164513
1.44236,-0.927927,-1.79391,0.247438,0.0758385,0.0512927
1.91287,-0.971862,-2.00803,0.301998,-0.12623,0.194777
0.65957,-1.05075,-2.1046,0.233819,-0.244373,0.228896
0.321705,-0.719595,-1.5734,0.0991248,-0.302315,0.235905
0.226961,-0.152457,-0.426155,-0.0080362,-0.390265,0.172875
-0.0699616,0.280651,0.937361,0.00919825,-0.47277,0.210554
-0.83939,0.925912,2.37883,0.152437,-0.46819,0.257165
-1.9237,1.16606,2.9477,0.394493,-0.18667,0.222206
-1.29956,0.829502,1.92722,0.353829,0.187867,0.110767
-1.06763,0.54105,1.18063,0.164915,0.248702,-0.0118572
-1.0638,0.402733,0.931334,0.00846553,0.391545,-0.112739
-0.360868,0.116084,0.12691,-0.0468738,0.464407,-0.174038
0.541703,-0.134533,-0.641028,-0.0794702,0.372834,-0.200216
1.22843,-0.338282,-0.937138,-0.0382596,0.262447,-0.117573
2.01155,-0.55808,-1.14326,0.186246,0.216751,-0.0273197
1.51177,-1.0919,-1.79831,0.293086,0.0675535,0.0710097
0.999174,-1.35007,-2.28783,0.320105,-0.0967646,0.166476
0.759962,-1.22115,-2.07118,0.227805,-0.266548,0.264165
0.310128,-0.779267,-1.28759,0.100161,-0.351045,0.28104
0.427416,-0.242094,-0.145412,0.070146,-0.468207,0.259355
-0.286627,0.525608,1.05458,0.00543118,-0.492724,0.344471
-1.24711,1.27855,2.34922,0.166044,-0.458128,0.367712
-2.03001,1.63441,3.34863,0.466268,-0.217595,0.293678
-1.34653,1.26586,2.34384,0.465443,0.286063,0.094738
-1.36083,0.712674,1.07542,0.249485,0.314239,-0.0268745
-1.22401,0.512518,0.833048,-0.0651898,0.480653,-0.139438
-0.345576,0.234258,-0.00259402,-0.0816715,0.565223,-0.218271
0.802866,-0.21019,-1.10055,0.0275577,0.415605,-0.248935
0.456171,-0.857932,-2.11352,0.193843,0.0909855,-0.0967925
0.774269,-0.947579,-2.12161,0.220431,-0.14602,0.0565138
0.803941,-0.599657,-1.57983,0.0920838,-0.346076,0.177613
0.435361,-0.0227755,-0.306143,-0.024975,-0.414563,0.215149
0.747604,0.812272,0.984646,-0.0830073,-0.269617,0.203556
0.813282,1.13888,1.49794,0.138603,-0.0768194,0.144836
0.558566,0.711449,0.354093,0.118283,0.020885,-0.0132684
-1.80367,-0.17861,-0.544432,0.0555686,0.127163,-0.168086
0.636712,0.0653047,0.182161,-0.0744866,0.0122832,-0.0517427
0.986142,0.173526,0.571475,-0.021601,0.0344094,-0.0224913
0.717974,-0.0380031,0.176764,0.039906,0.0299134,-0.00947011
0.0656812,-0.269434,-0.400025,0.0100002,-0.0117813,0.0624188
0.056906,-0.155529,-0.399166,-0.0470684,-0.0846158,0.0738848
-0.268381,-0.0180957,0.0852626,-0.00640696,-0.176023,0.0178711
-0.316418,0.0649581,0.12104,0.012466,-0.077897,0.0258464
-0.0611986,0.0647632,0.119639,-0.00747097,-0.03077,0.0129916
-0.155028,0.0712278,0.0950172,-0.0147269,-0.00455734,-0.00881869
-0.0206236,0.0136797,-0.0329612,-0.00847518,0.00171037,-0.0249791
0.0456775,-0.0640643,-0.0578248,0.00191313,-0.058479,-0.0070706
0.0442348,-0.0161688,-0.0279069,-0.0211217,-0.067439,0.0305353
0.0123774,0.0391898,0.0144983,-0.00126857,-0.0435617,0.00813705
0.0206375,-0.00443884,-0.0474607,-0.0114697,-0.0484166,-0.00301135
0.0363288,-0.00233656,0.00303594,-0.00652438,-0.0421352,0.0107847
0.0430073,-0.00340068,-0.0150888,-0.0142806,-0.0426975,0.0148206
0.0256603,-0.0012591,-0.0110034,-0.0101139,-0.0494527,0.00975883
0.00210345,-0.0193318,-0.0315952,-0.00247335,-0.0529268,0.00987118
-0.0166169,0.00728354,-0.00185668,-0.0128822,-0.0528733,0.0174769
0.0168333,0.0179095,0.00387477,-0.00862014,-0.0371225,8.07047e-05
0.0471369,0.000853765,0.0031615,-0.00701034,-0.0401379,-0.00159562
0.0310638,-0.00977878,-0.0098626,-0.0110698,-0.0539682,0.0172978
0.017919,0.01471,0.00388357,-0.0093466,-0.0448971,0.0184639
0.00716236,0.00301275,-0.000506061,-0.00542617,-0.0404712,-0.00105375
0.0404521,-0.0353447,0.0255992,-0.00308734,-0.0275005,-0.0128269
-0.0561126,-0.108673,-0.143519,-0.0212916,-0.0417361,0.0488307
0.01378,0.127524,0.0786717,-0.0193797,-0.0820802,0.0132118
0.00580312,0.0242943,0.0240808,0.00955403,-0.0217587,-0.0155629
0.0559805,-0.0246973,-0.0127757,-0.0147663,-0.0360388,0.0111237
-0.0284193,0.0381684,-0.0137941,-0.0118654,-0.0576899,0.0441899
-0.0494798,0.0626555,0.0330558,0.00328088,-0.0440691,-0.00688237
0.00706315,-0.0310573,0.01237,-0.0104156,-0.0269038,-0.0259795
-0.022406,-0.00972288,-0.0672141,-0.00899076,-0.0657767,0.0565897
-0.0654361,0.0881913,0.108866,-0.0183709,-0.0562413,-0.0192943
-0.0129406,-0.0225146,-0.0403318,-0.0233676,-0.0227806,-0.00604451
0.00303765,0.0040852,-0.0198268,0.00337845,-0.0287319,0.0133721
-0.0436527,0.000915837,-0.00108674,-0.00862217,-0.0563278,0.00152147
-0.0405777,0.034975,0.0117654,-0.0223457,-0.0242452,-0.00108576
0.125642,0.0124947,0.0436559,0.0110998,-0.018977,-0.0406302
0.110488,-0.100309,-0.0474218,-0.0170293,-0.0477019,0.0111595
-0.0403484,-0.0161117,-0.00530866,-0.0264379,-0.0615817,0.0571033
-0.0805781,0.0296813,0.0113162,0.0142317,-0.040097,0.0114374
-0.0674426,-0.00864274,-0.000270602,-0.0126845,-0.0402338,-0.00845897
-0.0207201,-0.0257013,-0.0200653,-0.0106984,-0.0167369,0.00862771
-0.0208727,0.00515971,-0.0083267,-0.0137545,-0.051491,0.0236469
-0.0360031,0.00730869,-0.00955999,-0.00546384,-0.0468704,0.0199663
-0.0318151,0.0104939,0.00333056,-0.0103503,-0.0272721,0.00981057
-0.00713143,0.0392105,0.0185695,-0.00325561,-0.033035,-0.00370729
0.0255333,0.0029946,0.00076732,-0.00383389,-0.0336242,0.00362378
0.0567525,0.0157467,0.0128922,-0.0138802,-0.0382012,0.00293875
0.0223289,0.00832069,-0.00355673,-0.00585032,-0.0449237,0.00970691
0.036269,0.0115053,0.00731071,-0.00933385,-0.036771,0.000337899
0.058773,0.0125473,0.0268364,-0.0122384,-0.0336607,-0.00459886
0.0536761,-0.0183063,4.78765e-05,-0.0138341,-0.0306498,0.00880593
0.0492823,0.00617669,0.00425439,-0.012451,-0.0404573,0.0149669
-0.00352501,-0.0108119,-0.0113171,-0.0104581,-0.0412731,0.0110089
-0.00157693,0.0030164,0.00795988,-0.00787324,-0.042446,0.00623608
0.00849657,-0.00549085,-0.0240293,-0.0101336,-0.0424507,0.00273693
0.0360179,0.027468,0.0297787,-0.0140468,-0.0513189,0.00425744
-0.00599206,-0.0086867,0.0175646,-0.00774473,-0.0260829,0.00648254
-0.0124672,0.0243151,0.0131725,-0.018788,-0.0407327,0.00932634
-0.0156204,-0.000158974,0.0067426,-0.00935495,-0.0310434,-0.00503927
-0.014387,-0.00654464,-0.00715839,-0.00564498,-0.0364619,0.0142189
-0.0103328,-0.00336483,0.0185765,-0.00923383,-0.0405798,-0.0081439
-0.0185868,-0.0299619,-0.0168251,-0.0168369,-0.0352186,0.00706685
-0.0328137,0.00729821,-0.00417888,-0.0180745,-0.0451524,0.0120786
-0.0294964,0.0115577,-0.0116378,-0.0115553,-0.0377272,-0.000172198
-0.0532493,-0.0341964,-0.0107901,0.00130498,-0.0399882,-0.0101088
-0.0671917,0.0435183,-0.029235,-0.0220928,-0.0485597,0.0459292
-0.00498762,0.102016,0.0142519,0.0152669,-0.0146774,-0.019963
0.0635031,-0.00234354,-0.0105634,-0.0129215,-0.0244565,-0.0292096
0.102282,0.010395,0.00270805,-0.0206051,-0.0280718,0.0213863
0.0849477,0.0210559,0.00464765,-0.0119178,-0.038303,0.005611
0.0354023,-0.00232435,-0.0119548,-0.0104318,-0.0413239,0.00662887
0.0137169,0.0019497,-0.00684918,-0.0180428,-0.0376643,0.00835413
0.038561,0.00511958,-0.00443529,-0.0100117,-0.0223001,-0.00106341
-0.0433609,-0.0469694,-0.0245793,-0.0062443,-0.0280362,-0.0035243
0.042214,-0.0246751,-0.0407641,-0.0192537,-0.0333102,0.0182338
-0.00928817,-0.0863684,-0.0734089,-8.44002e-05,-0.0655979,0.0194943
-0.132647,0.0403676,0.0257148,-0.0152639,-0.0905566,0.0562307
-0.130718,0.0914292,0.146677,-0.0247706,-0.0170252,-0.0359056
-0.0115715,-0.0246582,0.0357142,-0.00436401,0.0187722,-0.0447331
0.0178099,-0.10874,-0.0773618,-0.0171662,-0.0114784,-0.00371194
-0.0111074,-0.0703968,-0.107715,-0.0145472,-0.058052,0.0446991
-0.109498,0.0329155,-0.0157665,-0.00929594,-0.0869792,0.0208085
-0.0734665,0.0711874,0.0509817,-0.00895345,-0.0411591,-0.0249482
0.0557308,0.0221408,0.00645622,-0.00325692,-0.018878,-0.0211668
0.0574287,-0.0236203,-0.0480882,-0.00339264,-0.0519114,0.010795
0.00717564,0.0104716,-0.00264572,-0.0110703,-0.0743222,0.0238774
0.00702718,0.0360152,0.00910444,-0.0206676,-0.0493135,-0.00913996
0.0522804,0.00510642,0.0278483,-0.0209605,-0.0388693,-0.02895
0.0920677,-0.0226036,0.0518842,0.0271597,-0.0248198,-0.00771952
0.0983993,-0.0417473,-0.0347544,-0.0385569,-0.0403607,0.0049789
0.178419,0.0816454,0.0570376,-0.0759739,-0.0360731,0.0294126
0.3812,0.21345,0.197322,0.0172633,0.0228459,0.0180464
0.321451,0.0655765,0.030831,0.00364077,0.0427329,-0.0166752
0.140434,-0.0492096,-0.124215,-0.0222213,0.0264822,0.0169868
0.0115546,-0.148085,-0.199449,0.0208948,-0.0239121,0.0349182
-0.0742077,-0.161868,-0.166144,0.0167771,-0.101986,0.0523881
0.00460324,0.0328434,-0.0690826,-0.015159,-0.0288585,0.0561879
0.303593,0.130514,0.077681,-0.00230426,-0.0073154,-0.0140355
0.52428,0.0271018,0.0792176,0.0454412,-0.00216359,-0.00865108
0.553053,-0.000601346,0.122406,-0.012661,0.0120824,0.0506899
0.680456,0.184513,0.123656,-0.005867,-0.0135224,0.0875177
0.805831,0.311096,0.11746,-0.0884815,-0.11579,-0.0366794
0.531067,0.157978,0.245119,0.0158577,-0.0542953,-0.0365226
0.233577,0.053936,0.0587704,-0.0144595,0.0324801,0.0192132
0.111069,0.0699808,0.0873404,-0.0780165,-0.050863,-0.0574744
0.0105555,-0.0246573,-0.0122111,-0.00512278,0.00279051,-0.0769556
0.186597,-0.0960604,-0.191098,-0.0352671,-0.019462,-0.0383964
-0.0328162,-0.201305,-0.0874747,-0.0143888,-0.0569032,-0.0142055
0.0795567,-0.222649,-0.180399,0.0436021,-0.0268417,0.127217
0.112708,-0.112058,0.154999,0.0480779,0.0101255,0.139073
-0.589482,-0.338182,-0.200718,-0.0717287,0.0118169,0.126512
-1.17783,-0.394148,-0.29085,0.0288476,-0.0678329,0.221776
-0.914716,0.123972,0.0403334,-0.0142359,-0.0426202,0.212677
-1.88598,0.0714831,-0.0391459,0.0240817,-0.118442,-0.0706022
-0.855389,-0.118803,0.181513,-0.0596315,-0.00419492,-0.172541
-0.230682,0.137213,0.394978,-0.032057,0.0174625,0.0308319
-0.366544,0.152314,0.0454521,-0.0276858,0.0220802,-0.0124074
-0.676146,-0.13164,-0.102331,0.0718779,-0.00982741,-0.169142
-0.32682,-0.0680759,0.0942978,-0.036645,-0.0671821,-0.187646
0.279608,0.0549257,0.207046,0.0133743,0.0395681,-0.120551
0.428261,-0.0941753,0.0696824,-0.00600857,-0.0212162,-0.0788819
0.195625,-0.277043,-0.106224,-0.0268459,-0.0642151,-0.0327035
0.291642,-0.0972219,-0.102104,-0.0869474,-0.0912296,0.0598593
-0.108595,0.10213,-0.108975,0.0067634,-0.0307351,-0.068097
0.655321,0.285684,0.0354794,0.0307866,-0.0545572,-0.16164
1.07123,0.0469498,-0.00454029,-0.0364872,0.0107358,-0.11838
1.46657,-0.057648,-0.0556383,-0.0126777,0.0327516,0.110271
0.436855,-0.124945,-0.335988,-0.023903,-0.000670552,0.119808
0.30917,-0.00350196,-0.339698,-0.00137651,-0.0648832,0.146049
0.373641,0.19335,-0.216024,-0.0121096,-0.0911557,0.125016
-0.143698,0.154279,0.0372662,0.010209,-0.127427,-0.0109951
0.319898,0.102776,0.279191,-0.0122211,-0.0274671,0.0342446
0.15435,0.0922314,0.392972,-0.0446233,-0.0148712,0.0715263
-0.1118,0.145643,0.400604,-0.0136759,0.0671079,0.0626183
-0.0502398,0.123296,0.203243,-0.0271291,0.118847,0.0270402
-0.159273,-0.0149245,-0.111577,-0.0101136,0.109275,0.0375156
-0.0792016,-0.014955,-0.219882,-0.0268611,0.0713378,0.0289506
-0.184652,-0.102149,-0.261674,-0.0201598,-0.0212071,0.0144656
-0.146934,-0.125624,-0.143443,0.000824571,-0.105257,0.0255212
-0.243136,-0.0798076,-0.0482155,-0.0179815,-0.0692877,0.0558145
-0.267629,-0.001033,0.0113912,-0.0205722,-0.0332519,0.0560394
-0.465984,-0.0466453,-0.0432764,-0.00780046,-0.0298779,-0.000976384
-0.658314,-0.149734,-0.151361,-0.00783527,-0.0581471,0.000277579
-0.745915,-0.0230157,-0.0593182,-0.00116903,-0.0717352,0.00923115
-0.512832,-0.0263968,-0.0117092,-0.0119971,-0.0153456,-0.0586355
-0.419125,-0.0988313,-0.0726744,0.0112766,-0.0665157,-0.0551922
-0.382548,-0.103124,-0.0540574,0.019145,-0.0868355,-0.0612001
-0.325401,-0.0669752,-0.0416651,0.00870085,-0.0517747,-0.0808099
0.00562646,-0.0150806,0.044481,0.00275272,-0.036971,-0.0973392
0.300417,0.00491515,0.0831319,0.000878274,-0.0668795,-0.0640424
0.487123,-0.00268685,0.119513,-0.00587094,-0.0672938,-0.0213352
0.407958,-0.0154049,0.142188,-0.00280654,-0.0539478,-0.0154761
0.523814,-0.0569973,0.131769,-0.00522387,-0.0201129,0.0151371
0.540752,0.0366568,0.157566,-0.0260274,-0.0153411,0.0391952
0.630264,0.078097,0.176738,-0.0285056,0.0193901,0.0529866
0.384406,0.072972,0.110784,-0.0372571,0.029595,0.0595002
0.186858,0.0656784,0.0785782,-0.0321488,0.0513933,0.0630108
0.128542,0.0668096,-0.0323733,-0.0411298,0.062906,0.0608022
0.0591403,0.081789,-0.118827,-0.0308268,0.0464768,0.0690479
0.113258,0.105167,-0.125735,-0.0127033,0.014897,0.0456541
-0.126716,0.0095411,-0.125148,-0.00452018,-0.0402014,0.019227
-0.167296,0.0138125,-0.0710082,-0.00767648,-0.0288122,0.0410056
-0.223464,0.0351489,-0.079156,-0.0277851,-0.0246431,0.0378344
-0.247289,0.0490074,-0.0772938,-0.0329008,-0.022042,0.0078721
-0.311787,0.020319,-0.111194,-0.0246335,-0.02451,-0.0103666
-0.433685,-0.0498401,-0.132848,-0.00238788,-0.0454213,-0.019061
-0.407869,-0.0381537,-0.12079,-0.00135595,-0.0493514,-0.022082
-0.289932,-0.0797765,-0.0198312,0.0248523,-0.0704804,-0.038582
-0.204274,-0.0543182,0.0592694,0.0412047,-0.092711,-0.0654035
0.0108401,-0.0353133,0.0649053,0.00069356,-0.0796595,-0.055759
0.0727849,-0.0130002,0.0334596,0.00481105,-0.0460415,-0.0249374
0.0818766,0.00403489,-0.0103549,-0.013196,-0.0874784,-0.0454289
0.251629,0.025173,0.0932659,0.00946009,-0.0533065,-0.0558331
0.380484,-0.0068465,0.0797749,-0.0072819,-0.0516201,-0.0267085
0.423,-0.0845803,0.0546323,-0.0254073,-0.0424231,0.00505316
0.383857,-0.0558186,0.0723587,-0.0142548,-0.0266393,0.0222014
0.336337,-0.0334238,0.0643082,-0.0190651,-0.00513795,0.0296705
0.340319,0.0187237,0.0921388,-0.0243773,-0.00282213,0.0455267
0.211756,0.0816265,0.0745597,-0.019703,-0.00928745,0.055037
0.164056,0.0954949,0.08471,-0.0393829,0.0283745,0.043698
0.180009,-0.00777781,0.120328,-0.0335693,0.0700731,0.052504
-0.00253318,-0.0587033,0.00160735,-0.0206199,0.0802938,0.0648398
0.117235,-0.0502613,-0.0773553,-0.0162697,0.0432684,0.0600277
0.268393,-0.069537,-0.053136,-0.026549,-0.0440675,0.0371734
-0.0745359,-0.0277765,-0.0442185,-0.0126699,-0.0509648,0.0336068
-0.311161,-0.0382403,-0.0618763,-0.0173512,-0.0207686,0.0400752
-0.381359,-0.021152,-0.0723218,-0.0194973,-0.0260981,0.0213622
-0.47299,-0.0487581,-0.0968931,0.00255871,-0.0706008,-0.0279642
-0.387895,-0.0509532,-0.0648702,-0.0181332,-0.0633302,0.00912595
-0.378594,0.043766,-0.0327409,0.004462,-0.0474015,-0.0262426
0.129085,-0.0481931,0.133711,0.00379539,-0.000689164,-0.0287086
0.273738,0.0176933,0.151346,-0.0160344,-0.0909408,-0.0199198
0.115097,0.0178173,0.120639,0.00631773,-0.0599197,-0.0662076
0.226758,-0.017385,0.0973134,0.00583482,-0.0991701,-0.0264883
0.0951008,0.0178499,0.0679523,-0.000248075,-0.0651515,0.00276649
0.0512083,-0.00553067,0.0278553,-0.0230466,-0.0129721,0.0125817
0.0150131,-0.0289326,0.0788664,-0.0193431,0.00949427,0.0313351
-0.00468601,-0.044868,-0.000578428,-0.00748348,0.0291865,0.0412962
0.141348,0.0231534,-0.0118395,-0.0375998,0.04637,0.0353298
0.230294,0.0145513,0.0662672,-0.0410467,0.0466504,0.0158299
0.195373,-0.00775335,-0.00476705,-0.0399229,0.0713501,0.050499
0.0738633,-0.00764678,-0.0703864,-0.0369964,0.0562787,0.0804103
0.119926,0.0136234,-0.134131,-0.0243931,0.02106,0.0614335
-0.00750086,-0.0341821,-0.146236,-0.0109521,-0.053368,0.00812799
-0.175456,-0.0298062,-0.113877,-0.0280975,-0.0342824,0.0260115
-0.0227628,0.164859,-0.0502418,-0.0546938,0.00433233,0.0712435
-0.255907,0.21721,-0.0968234,0.00700963,-0.0322556,-0.00485063
-0.786044,-0.0868289,-0.145363,0.0498756,-0.131695,-0.152002
-0.151518,-0.0841364,-0.0193295,0.0327257,-0.0796918,-0.0591429
0.111731,-0.0343167,0.0339239,0.00387424,-0.0569192,-0.0109791
2.53685,-0.860907,-0.57272,0.524036,0.0812934,-0.591085
1.3641,-3.26222,-1.84065,0.542156,0.0374859,-0.288187
2.19341,-3.86133,-0.738529,0.0647522,-0.0393359,0.33641
1.39135,-3.17318,-0.42066,0.123182,0.085654,0.45464
0.331654,-2.39112,-0.294247,0.0546147,0.0115732,0.607384
-0.285986,-0.90152,-0.111052,0.0301599,-0.0919657,0.341554
-0.161093,0.00957783,-0.146944,-0.00948058,-0.0488027,0.0724992
0.106893,0.194594,-0.146236,-0.0233577,0.0349089,-0.0595739
0.116993,0.0264087,-0.165225,0.0137822,0.0307432,-0.0196806
-0.00830848,0.0722749,-0.182754,-0.0391798,0.0325357,0.0311017
-0.172957,-0.0191589,-0.147056,-0.00848176,0.0404259,0.0361842
-0.326819,0.342823,0.0542818,-0.0363321,-0.0039769,0.195085
-2.18578,2.08551,0.618244,-0.172288,-0.333607,0.718983
-1.29283,4.09953,2.00117,0.253607,-0.0618623,0.493681
-2.44868,3.73957,1.81605,0.459496,-0.159002,0.363421
-2.49464,2.692,2.48683,0.579312,0.135438,0.22274
-0.942653,1.60426,1.63928,0.420827,0.347719,-0.164925
-1.69687,-0.070151,-0.323808,0.160722,0.292272,-0.406176
-0.754405,-0.0454116,0.134409,-0.128349,0.119005,-0.197278
-0.945509,-0.328314,-0.280776,0.0230837,0.241684,-0.211936
-1.52614,-0.758793,-1.07284,0.019689,0.113342,-0.0985857
1.0563,-0.130567,-0.939272,0.0124414,0.0563229,-0.0306346
1.25141,-0.0871363,-0.676922,0.030053,-0.187963,-0.0127608
0.515477,-0.0739119,-0.310518,0.0244575,-0.220249,0.010119
1.04615,0.288628,-0.112137,0.000152349,-0.137448,0.147806
2.78139,0.937613,0.376924,-0.00566173,-0.111149,0.169117
0.663696,0.630517,0.235462,0.0315039,-0.218992,-0.0478839
-1.03217,-0.132495,0.129203,0.00851738,0.079885,-0.0608566
0.676997,0.0333051,0.365756,0.0149534,0.00565469,-0.00107038
1.41284,0.270106,0.501275,-0.0475078,0.0318137,0.0386191
0.811937,0.188591,0.476346,-0.0320525,0.0534486,0.0200462
-0.13793,-0.0852251,0.0257922,-0.0328658,0.13059,0.0396338
0.016944,-0.0980569,-0.202648,-0.0433678,0.100248,0.0610009
-0.116182,-0.0723887,-0.297336,-0.0212834,0.0536249,0.0717671
-0.172466,-0.136218,-0.286133,-0.0114566,-0.00695756,0.0598474
-0.580583,-0.144467,-0.139772,-0.0303853,-0.124119,0.038384
-0.659417,-0.00924527,-0.0594277,-0.0344014,-0.0355513,0.0501844
-0.835589,-0.0144305,-0.0678361,-0.0239975,-0.00246669,0.0211092
-1.04759,-0.0940884,-0.159032,0.00385422,-0.0105357,-0.023487
-0.817971,-0.126187,-0.190666,0.079848,-0.0690719,-0.0466698
-0.402475,0.0661125,0.0772546,-0.00143677,-0.121637,-0.184546
0.823134,-0.0572036,0.0494942,-0.0124917,-0.0261068,-0.147548
-0.0846637,0.0712421,-0.119386,-0.0069297,-0.107006,0.0477933
0.850498,0.114085,0.311957,-0.00750774,-0.0665929,-0.149891
0.389239,-0.0131892,-0.136411,0.0903256,-0.0977043,0.0503317
0.58496,0.0515499,0.064899,-0.042731,-0.0605478,0.00853944
0.80285,-0.0625325,0.128501,-0.0969429,-0.0619977,-0.0155818
-0.152887,0.197887,0.188085,0.028897,0.00477707,0.117297
2.31617,0.355615,0.662388,-0.110815,0.116957,-0.0547015
-0.0116074,0.0508985,0.135222,0.0403644,-0.0490826,0.00662333
0.501935,-0.0324807,0.0501187,-0.0911937,0.188327,-0.0395586
-0.714766,-0.10914,-0.548205,0.0838725,0.0376849,0.159046
0.982537,0.380227,-0.138644,-0.0814184,0.105756,0.0463424
1.61234,0.00501893,0.0615899,0.13794,-0.0418351,-0.0280523
-1.05451,-0.826335,-0.564193,0.0268568,-0.0848826,0.0777631
-2.20618,-0.75417,-0.56982,0.00654328,-0.1115,0.248148
-0.947667,0.178197,0.394318,0.0384429,-0.0275769,0.215922
0.295476,0.597745,0.395139,-0.0585943,-0.00173327,0.138577
-2.19746,0.094119,-0.243992,0.104345,-0.0350919,-0.197748
-0.471095,0.0736473,-0.0830773,-0.0891876,0.0590839,-0.129869
-0.0219738,0.107339,0.0868716,0.0200388,-0.0663526,-0.130748
0.465528,-0.175088,0.0295022,0.0826364,-0.0043309,-0.124822
-0.396904,-0.305298,-0.316351,0.0530935,-0.111605,0.00958973
-0.226607,-0.304525,0.357997,0.00123638,-0.145457,-0.288525
-0.020251,-0.605797,-0.11262,-0.0279468,-0.0510443,-0.11413
-0.669792,-0.470066,-0.367448,-0.0523222,-0.109324,0.0568069
-1.01632,-0.24522,-0.342694,-0.0749468,-0.055733,-0.021902
-1.53874,0.0999742,-0.0534392,0.0225973,-0.0490705,-0.266664
1.99187,0.286669,0.658788,-0.00147629,0.144849,0.0278143
3.53137,-0.071,0.418538,-0.160546,0.0713181,0.0122131
0.634378,-0.137954,0.0110312,0.0775422,-0.0619335,0.165935
-0.145486,0.0596296,-0.299937,-0.0511905,0.061937,0.203689
0.0288381,0.225461,0.0766244,-0.0443335,-0.172177,-0.0147232
0.436752,0.334758,0.250314,-0.05328,0.0385944,0.0141668
0.914273,0.398265,0.286712,-0.0700018,0.0516345,0.0477957
0.0450982,0.327648,0.0627976,0.00637984,0.0915577,0.0587917
0.101913,0.190402,-0.393626,-0.0174165,0.109121,0.0635522
0.305688,0.25195,-0.238268,-0.0288091,-0.029506,-0.00268817
-0.283944,-0.0574126,-0.0776046,0.00125635,-0.0436922,-0.0142466
-0.67343,-0.343482,-0.031414,0.0189694,-0.0133469,0.0392053
-1.30189,-0.356859,-0.0128204,0.0688659,0.00586319,0.127761
-0.774648,-0.156015,-0.194418,-0.0893844,0.0231007,0.112709
-0.513503,0.118357,0.0384621,-0.0765946,-0.0738032,0.0800709
-2.52895,-0.0908635,-0.170461,0.0558521,-0.0994979,-0.148164
-0.956985,-0.0366799,-0.142003,-0.00267613,-0.0118325,-0.0802839
-0.638493,-0.212564,-0.0761139,0.0490887,-0.0398551,-0.148215
-0.029855,-0.0406183,0.130839,0.00871551,-0.0217604,-0.160202
0.278844,0.00813046,0.0775366,0.027481,-0.0607795,-0.0821927
0.519061,-0.0473652,-0.0353189,-0.00578743,-0.0668707,-0.0684131
0.301715,-0.0759463,-0.0334702,-0.00549561,-0.0718478,-0.0540774
0.595554,-0.0740411,-0.00551696,-0.0108027,-0.0669191,-0.00650841
0.451915,0.0346234,0.0698434,-0.0188752,-0.0725912,0.00647205
0.530705,0.0313615,0.0846499,0.00133538,-0.0356618,0.00322723
0.337698,-0.0217095,0.0364722,-0.0178105,-0.0487029,0.0193801
0.28369,-0.0259462,0.134379,0.0046187,-0.046865,0.00941539
0.317514,0.000621681,0.206473,-0.0212752,-0.00648975,0.0496555
0.160197,0.0241408,0.253917,-0.0168805,0.0281918,0.049487
0.0992894,0.0273976,0.183628,-0.0325009,0.0730565,0.0404175
0.0120533,-0.000179992,0.048827,-0.0464897,0.0954751,0.0357594
-0.0380928,-0.00861613,-0.118765,-0.0443411,0.0914337,0.0386854
-0.0682128,0.0191139,-0.240124,-0.0380862,0.0529782,0.0476447
-0.158607,-0.0201922,-0.278581,-0.0130152,-0.00859025,0.00384837
-0.338283,-0.0754238,-0.257014,-0.0314751,-0.0510577,0.0312188
-0.290892,0.0267013,-0.145223,-0.0168561,-0.0325342,0.0343217
-0.353942,-0.0136799,-0.213347,-0.0527368,-0.0389884,0.0058077
-0.623309,0.0471877,-0.208969,0.0121839,-0.0752208,0.00527084
-0.546754,0.0481889,-0.187761,0.0114272,-0.0725602,-0.0550057
-0.438354,0.003381,-0.105113,0.0399638,-0.0935324,-0.0737618
-0.130728,-0.0522038,-0.0458844,0.0257052,-0.0906542,-0.0710152
0.0460044,0.00406103,0.00744638,0.0281737,-0.0772586,-0.0431034
0.179245,0.0529155,0.0838664,0.0142797,-0.0704238,-0.0324764
0.391156,0.0729571,0.189036,0.0354902,-0.0634537,-0.0641394
0.650071,-0.0219645,0.153514,0.0103281,-0.0447278,-0.0204245
0.541916,-0.0240171,0.155499,-0.0324073,-0.067187,0.0428737
0.187262,0.0784125,0.245607,-0.0323861,-0.0369901,0.0354121
0.137681,0.068871,0.231133,-0.0192058,0.00448674,0.0152861
0.104518,0.036972,0.199741,-0.0084334,0.0200608,0.00933564
0.151007,0.0188418,0.202428,-0.0144777,0.0259939,0.00306463
0.349048,0.0133736,0.188612,-0.0273846,0.0452002,0.0192079
0.089593,-0.0375002,0.082937,-0.0498306,0.0483423,0.0274203
-0.114432,-0.0394429,-0.0542817,-0.074525,0.0713707,0.0500883
-0.160553,0.0394004,-0.201569,-0.0631695,0.0773594,0.064098
-0.034411,0.114905,-0.276234,-0.0396472,0.0446708,0.0412152
-0.596592,-0.0613875,-0.271726,0.00645363,-0.0721446,-0.0510272
-0.162955,-0.0574714,-0.169378,-0.015286,-0.0295995,0.0122246
-0.249672,-0.0297365,-0.152186,-0.000902653,-0.0449694,0.0361588
-0.549962,-0.0337684,-0.183427,0.0150906,-0.0971203,-0.0154081
-0.508566,-0.0433993,-0.107999,0.0161563,-0.100155,-0.0455815
-0.506769,-0.0710817,-0.0704705,0.024231,-0.0817443,-0.0508085
-0.319064,-0.0861385,-0.0255062,0.0246702,-0.0719413,-0.0510383
0.0183635,-0.0363774,0.0692835,0.00468022,-0.0623126,-0.0526325
0.216857,0.00498023,0.111108,-0.00500584,-0.0491116,-0.0431775
0.370018,0.0335976,0.146005,-0.0167613,-0.0343133,-0.0142659
0.389469,0.0463537,0.146209,-0.014859,-0.010798,-0.00471896
0.555564,0.0813499,0.184462,-0.0082044,-0.00605507,0.00481886
0.400522,0.0165522,0.126029,-0.028042,-0.00208421,0.0107741
0.292401,0.0240827,0.123724,-0.0175214,0.0124035,0.0405419
0.141557,0.0316561,0.0706103,-0.0340624,0.0190517,0.0452473
0.00737971,0.0445319,0.0776498,-0.0448497,0.0313147,0.0359274
-0.0742326,0.0297068,0.0242794,-0.0348501,0.0609505,0.0351628
-0.129198,0.0127431,-0.0951804,-0.0379499,0.0610485,0.0387341
-0.225561,0.00432009,-0.186206,-0.0429896,0.0277469,0.0381657
-0.423587,-0.0487663,-0.168059,-0.00826299,-0.0434575,-0.011651
-0.241105,-0.0137772,-0.14568,-0.0229378,-0.0157671,-0.00142503
-0.239109,-0.00207987,-0.130687,-0.0132702,-0.0395196,-0.018853
-0.430113,-0.0551488,-0.163843,0.00918823,-0.0763497,-0.0420012
-0.457973,-0.073214,-0.18662,0.0301985,-0.079001,-0.0251016
-0.245369,-0.0350852,-0.0461259,0.0413529,-0.102132,-0.0651567
0.0845387,-0.0098083,0.0464515,0.0318164,-0.0847396,-0.0481534
0.2466,0.0549781,0.157439,0.00577486,-0.0618707,-0.0468565
0.376601,0.0272099,0.137523,0.00848961,-0.0371905,-0.0220854
0.744214,-0.00818889,0.146007,-0.00690973,-0.0143431,-0.00638765
0.492834,0.0303092,0.190237,-0.00564194,-0.0403733,0.0440631
0.654206,0.160004,0.361102,-0.0411162,0.0517108,0.0181696
0.430277,0.0771931,0.170205,-0.10686,0.0611068,-0.0124334
-0.00151301,-0.0437965,0.00589486,-0.0274392,0.0832928,0.00208449
-0.207765,-0.253261,-0.312094,-0.0351624,0.022212,0.0178676
-0.529056,-0.300901,-0.399201,0.00187379,-0.0396003,0.0713956
-0.406954,-0.192443,-0.297278,-0.000108123,-0.084651,0.0714008
-0.431469,-0.0541101,-0.0342942,-0.023554,-0.135423,0.0555233
-0.28862,0.0957791,0.354781,-2.41399e-05,-0.0715005,0.0117076
-0.29651,0.204355,0.374928,-0.0288601,0.0225323,0.00421506
-0.251612,0.14581,0.223445,-0.00160408,0.0578946,-0.0643327
-0.255896,0.0788017,0.0189535,0.00579631,0.0504125,-0.0695053
0.149294,0.0455253,-0.0502994,-0.0384265,0.0412167,-0.0510015
0.156915,-0.019409,-0.049073,-0.0124674,-0.0145818,-0.0241706
0.0755982,-0.122562,-0.225496,-0.00625741,-0.00884464,0.0177059
0.338197,-0.0131144,-0.219414,-0.0420462,-0.0431603,0.043327
0.197879,0.0348125,0.0616115,-0.0155565,-0.129555,-0.00608754
0.121203,-0.0310992,-0.0451914,0.0130287,-0.0297107,0.0369171
0.00656166,-0.0469811,-0.0421896,-0.0163764,-0.060293,0.0259428
-0.242297,-0.0978954,-0.0235424,-0.013366,-0.0628302,0.0334927
-0.419737,-0.0605091,-0.0180934,-0.0333011,-0.0366263,0.0445855
-0.67615,-0.0358411,-0.0081754,-0.000847816,-0.0200336,-0.0339366
-0.44186,-0.107313,-0.0696879,-0.011529,0.0168375,-0.0322177
0.1223,-0.0183483,0.0554609,-0.00749743,0.0175443,-0.0183437
0.210946,0.0199053,0.0542832,-0.0235844,0.0187719,-0.00196576
0.312933,0.0496459,0.0190068,-0.0350668,0.00681902,0.00283492
0.250552,0.0326667,-0.0116652,-0.0062989,-0.0372878,0.0185282
-0.0147059,0.0285939,0.0195939,-0.00734138,-0.0777473,0.00866854
-0.0125334,0.114792,0.113759,-0.0242115,-0.0253993,-0.0259078
0.23561,0.120978,0.167953,0.0101091,0.0351728,-0.0425296
0.553166,-0.0048464,0.111718,0.0293941,0.00011766,-0.0179545
0.145908,-0.100283,-0.126212,-0.0402213,-0.0159776,0.0274993
0.104352,-0.0449098,-0.0871211,-0.0317355,-0.0554266,0.0365844
0.0275644,0.00408588,0.0126071,-0.00810206,-0.0829626,0.0261177
-0.0838792,-0.0213796,0.0210085,-0.016473,-0.0295409,0.0170761
-0.246668,0.00429717,-0.0290474,-0.008439,-0.0108221,0.0138114
-0.124658,-0.00537541,-0.0105213,-0.00386441,-0.031684,-0.022034
0.0584595,0.00618195,0.056856,-0.0222234,-0.0220651,-0.0139528
0.0112563,-0.0076112,0.0220735,-0.0246702,-0.00689036,0.0098772
-0.0101325,-0.0086547,-0.000653637,-0.0134189,-0.0393001,0.00736445
-0.0706515,-0.0384184,-0.00131414,-0.00510985,-0.025954,0.00259095
-0.0976611,-0.01498,-0.00592737,-0.0238856,-0.0147174,0.0173917
-0.0274815,-0.00438482,0.00342885,-0.0111473,-0.0259668,-0.0122205
0.0147607,-0.00974193,-0.00251824,-0.00900906,-0.0154914,0.00421017
-0.052131,0.0456671,-0.0226007,-0.0282527,-0.0295727,0.0127064
0.053526,0.0700676,0.00534366,0.00229478,-0.00869469,-0.0324782
0.166291,0.000797941,-0.0168688,-0.018798,-0.0200831,0.00808758
0.13043,0.0242407,-0.00230586,-0.0178084,-0.0379253,0.0119721
0.0321038,0.0243143,-0.00984499,-0.00773656,-0.0285506,0.0152965
0.067471,0.0253431,0.0205324,-0.00874633,-0.0223805,-0.0113572
0.0610591,-0.00658004,0.0162148,-0.00686717,-0.0299594,-0.00161886
-0.094367,-0.0437191,-0.00799874,-0.0304773,-0.0399071,0.0302292
-0.246311,-0.0851088,-0.0546485,-0.00502688,-0.0484904,0.0158946
-0.467176,-0.129661,-0.0249844,-0.00326371,-0.0614484,0.0324594
-0.627437,-0.12742,-0.00431839,-0.0177249,-0.0296448,-0.00779039
-0.636626,-0.154015,-0.0536523,-0.00452381,0.0071837,0.00208133
-0.449375,-0.193534,-0.0664814,-0.00402457,0.00280087,-0.0290291
-0.17244,-0.167147,0.0244327,-0.0128509,-0.00610349,-0.0207267
-0.27389,-0.173459,0.0061518,-0.0379171,-0.0319888,0.0265748
0.0264408,0.108385,0.109934,-0.045243,0.000866964,0.0429242
0.0920521,0.129613,0.141701,-0.0164192,0.0386771,-0.0626802
0.177376,0.114674,0.0495337,0.00889134,0.0267478,0.00476414
0.505988,0.155944,0.0574975,-0.0311531,0.0176357,0.00964051
0.438689,-0.0738628,-0.206433,-0.00914639,-0.046531,0.0166007
0.120711,0.139237,-0.118171,-0.00973833,-0.129254,0.0828084
-0.233869,0.0936466,0.186222,-0.00796014,-0.00372164,-0.115725
0.260458,-0.118499,-0.0135507,-0.00812769,0.00950152,0.0030694
0.154525,-0.0375094,-0.0255268,-0.0171244,-0.0207096,0.0372247
-0.00509099,-0.131063,-0.0572301,-0.0298764,-0.0451368,-0.0225927
-0.330222,-0.0307445,-0.10169,-0.0266753,-0.0386502,0.0770901
-0.138284,0.105299,0.144469,0.0119815,0.0120856,-0.0863259
0.284455,-0.00994955,0.0594355,-0.0311188,0.00246774,-0.0224044
0.242705,0.0752462,0.01069,-0.0314253,0.00138073,0.0341282
0.108102,0.0817511,-0.044371,-0.024282,-0.0439801,0.0228099
-0.156814,0.0712989,-0.045224,-0.00291198,-0.0499625,-0.00456703
-0.136867,0.0755278,0.0117462,0.00814331,-0.0463175,-0.0304053
-0.124315,0.147865,0.148865,-0.00867677,-0.0189259,0.00534427
-0.0987053,0.122318,0.0806574,0.00251436,0.0275338,-0.0243042
0.448962,0.219835,0.127455,-0.0616695,-0.028671,-0.0435978
0.912853,0.167305,0.237691,0.0100972,0.0282558,-0.0851786
0.665976,-0.157086,-0.113841,0.0198519,0.0749604,-0.0139523
0.29142,-0.279124,-0.477717,-0.0284413,0.0233894,0.0684551
0.365651,-0.0535444,-0.359322,-0.0276715,-0.0466076,0.100929
0.277569,0.0902128,-0.326201,-0.0151239,-0.0935681,0.0873879
0.023069,0.132917,-0.0871449,0.0100434,-0.195962,-0.0149225
-0.316522,-0.00205051,0.0333445,0.013624,-0.0701404,-0.0365815
0.0776858,0.0550782,0.28188,-0.0282597,-0.0623873,0.0361767
-0.00100492,0.15837,0.351551,-0.0213184,-0.00425196,0.0530494
-0.166257,0.123417,0.12914,-0.0159382,0.0313335,-0.00356174
-0.24745,-0.00633239,-0.056875,-0.00589216,0.038718,-0.0342451
-0.0891294,-0.0500884,-0.0946624,-0.0176317,-0.00976312,-0.00963825
-0.00754696,-0.029932,-0.039144,-0.00732511,-0.0536405,0.00293213
-0.0747288,-0.0181818,-0.0270748,-0.0064261,-0.0482656,0.0234306
-0.10537,-0.00965099,0.00683411,-0.0104556,-0.0354491,0.00998259
-0.115107,-0.0277353,0.00888939,-0.0109878,-0.0191186,3.51667e-05
-0.110791,-0.0298686,0.0100099,-0.00385892,-0.0205259,0.00391281
-0.0298523,-0.0416472,0.0269923,-0.00174797,-0.0201221,-0.00254762
-0.054471,-0.0362915,0.00209294,-0.0227156,-0.0217026,0.0168425
-0.0613616,0.021181,0.0351436,-0.029639,-0.0249489,0.00749499
-0.0136885,0.0232778,0.0260459,-0.00927079,-0.00191522,-0.0153305
0.063302,0.00299853,0.00766221,-0.0195516,-0.0190612,-0.00158912
0.0289749,-0.0129343,-0.0173343,-0.0185776,-0.0214076,0.00149781
0.0203804,-0.0235718,-0.0217044,-0.0130708,-0.0290522,-0.00495332
0.0256352,-0.0182542,-0.00772728,-0.0144239,-0.0195398,0.00697058
0.0288165,-0.0108106,-0.0023501,-0.0151352,-0.0238899,0.00489533
0.022364,-0.023578,-0.00455084,-0.0116898,-0.0209968,0.00561225
-0.0272764,-0.0320496,-0.0136639,-0.0158839,-0.0249001,0.0115702
-0.06314,-0.0277727,0.00305309,-0.0178742,-0.0427468,0.0110649
-0.0621097,-0.0213887,0.00734014,-0.0120283,-0.0193247,-0.000207722
-0.0597211,-0.022455,-0.0140531,-0.0172418,-0.0201493,0.000641108
-0.018889,0.00732146,0.00780336,-0.0172284,-0.0263957,0.00458497
-0.013509,0.0126328,0.00999226,-0.0126728,-0.0244239,0.00425208
0.00934832,0.00623515,-0.00365864,-0.0152687,-0.0168402,-0.00335056
-0.0305737,-0.0118244,-0.0105107,-0.00449181,-0.0223049,-0.00821936
0.0601872,0.0423874,-0.00847633,-0.0313568,-0.0246805,0.040168
0.411399,0.107034,0.11108,0.017078,0.0307026,-0.0458765
0.334691,-0.113204,-0.0812291,-0.0273833,-0.0102491,-0.0141968
0.189987,-0.117349,-0.0999931,-0.0294726,-0.0297,0.0359483
-0.127046,-0.100091,-0.0832614,-0.0328267,-0.0609201,0.0622367
-0.308361,-0.00204015,-0.0233087,-0.00960553,-0.0833615,0.0446153
-0.351984,-0.0211739,0.0136962,0.0168738,-0.0443642,-0.0164825
-0.215349,0.0138295,0.0773022,-0.0379655,-0.00972146,0.00325525
-0.161061,0.0329616,0.0543499,-0.0173328,0.0125122,-0.00374615
-0.118007,-0.0128234,-0.0254231,-0.00648022,0.00179212,-0.0216859
-0.115104,0.00313282,0.00564399,-0.0144118,-0.0186242,0.00778663
0.0950041,0.100889,0.0689534,-0.0371334,0.00663887,-0.0224075
0.223901,0.0507698,0.0533342,-0.0214201,0.00952916,-0.0370035
0.000390472,-0.0405744,-0.0733073,-0.0156605,-0.0357922,0.029016
-0.158784,-0.00959345,-0.0558699,-0.0113671,-0.0660038,0.0295349
-0.25658,0.014953,-0.0130993,-0.0156289,-0.0481862,0.0222487
-0.233309,0.0947603,0.0288438,0.0111835,-0.00216199,0.00538963
-0.0486576,0.112713,0.0523308,-0.0123246,0.0195948,-0.0750481
0.420679,0.00272152,0.0609639,-0.0127415,0.0110798,-0.0308039
0.390209,0.0410634,0.075574,-0.0191568,-0.00528321,0.0235022
0.29819,0.0347707,-0.0175409,-0.00296265,-0.0274189,0.010084
0.138874,-0.0459983,-0.0792296,0.0009197,-0.0293414,0.0165907
0.058915,-0.0203932,-0.0876597,-0.0385013,-0.070012,0.0325935
-0.0541587,0.083976,0.0640779,-0.0301844,-0.0447178,0.00546414
0.0811997,0.082814,0.0463365,-0.0188828,0.00302173,-0.03061
0.248594,-0.0503513,-0.0233757,-0.00589466,0.0212392,-0.0409073
0.0592518,-0.0885136,-0.113287,-0.0294096,-0.0523759,0.056237
-0.121004,-0.00323134,-0.0500888,-0.0119693,-0.0661449,0.0343837
-0.174416,0.0148899,-0.0111004,-0.0112399,-0.0386795,-0.00429541
-0.0524047,0.00309451,0.00743566,-0.0115217,-0.00908749,-0.0168832
-0.116754,-0.0404941,-0.0392973,-0.013888,-0.0224223,0.0083223
-0.134329,0.00102447,-0.017056,-0.0149268,-0.0378354,0.00983113
-0.0222144,-0.00119124,0.0163434,-0.00359702,-0.0122329,-0.0121606
-0.0144266,0.0030679,-0.004985,-0.0250835,-0.0255319,0.023218
-0.0500277,0.00414922,-0.0128989,-0.00475502,-0.0262484,0.00547612
-0.0233019,0.00519605,0.0163243,-0.0130725,-0.03036,0.000930011
-0.000465255,-0.00120951,0.00480524,-0.0183429,-0.0265947,0.00611717
0.00274584,-0.00333641,0.00806253,-0.0102569,-0.0224642,0.00798905
-0.0252964,-0.00544666,0.00131792,-0.0166339,-0.0320098,0.00931996
-0.00471942,-0.00651997,-0.001653,-0.00911325,-0.0181061,-0.00591141
-0.00153581,-0.00120629,0.00372513,-0.0189776,-0.0290665,-0.00150412
0.00827038,-0.00866499,-0.00258304,-0.013823,-0.0185718,0.00139469
0.00727499,-0.00652667,-0.0111539,-0.0165384,-0.0235313,-0.00031364
0.0213515,-0.00334805,-0.0131453,-0.0162868,-0.0221724,0.00196695
0.0343525,0.00409442,-0.0162175,-0.0170119,-0.0213811,0.00552624
0.0515982,0.00301277,-0.0106714,-0.00847614,-0.0193843,0.00541848
0.0514344,0.0211068,0.00323011,-0.0146565,-0.0275512,0.00375706
0.0449234,0.00940901,0.00638947,-0.00662321,-0.0239738,0.00810462
0.000610946,0.00305093,0.00481753,-0.0138649,-0.0318961,-0.00825107
0.0362024,0.01473,0.0127019,-0.0154748,-0.0183553,0.00940794
0.0319831,-0.01188,0.00518107,-0.0126637,-0.0305215,-0.00140095
-0.0457152,-0.018203,-0.00960875,-0.0153976,-0.0246896,0.0218847
-0.0372279,-0.0128877,0.00547611,-0.0175664,-0.0346785,-0.0100064
-0.0371444,-0.0160882,-0.00202616,-0.0121033,-0.0162308,0.00922304
-0.030661,-0.0139557,-0.00194424,-0.0186287,-0.0203065,-0.00132006
-0.043606,-0.0213972,-0.00422536,-0.014743,-0.0269426,0.00777334
-0.0479907,-0.019259,0.00108583,-0.01493,-0.0259138,0.000357926
-0.0393393,-0.00756463,9.05935e-05,-0.0145037,-0.014553,0.00267327
-0.00805974,0.00198987,0.00685864,-0.016829,-0.0241647,-0.00658488
0.00701873,0.0158172,0.0113006,-0.0128462,-0.0267141,0.00222248
0.0134693,0.0190056,0.0145835,-0.0106678,-0.02728,-0.00676084
-0.000361143,0.00624564,-0.00590656,-0.0177246,-0.0274837,-0.00222147
0.00501855,0.0200859,-0.00478036,-0.014353,-0.0159805,-0.00320405
0.0148586,0.0136863,-0.0143092,-0.0210596,-0.0172098,-0.00444674
0.00938546,0.0126282,-0.00794075,-0.0136722,-0.0180351,0.00466812
0.0170284,0.00623437,-0.0142761,-0.0157803,-0.0260379,-0.00173217
-0.00875216,-0.0288703,-0.0273816,-0.0067727,-0.0178007,-0.000463724
-0.0811527,-0.0171002,-0.0335593,-0.019726,-0.0370447,0.0248679
-0.0036994,0.0105071,0.00262145,-0.00780582,-0.0199246,-0.00883603
0.0567434,0.00513865,0.0140203,-0.0218799,-0.0148506,0.00150615
0.0406574,0.00728061,0.000984563,-0.0179201,-0.0186393,0.0117939
0.00611478,0.00624212,-0.00476051,-0.00903308,-0.0241516,0.00436747
0.0383558,0.000892258,0.0148845,-0.00819993,-0.0262422,-0.00625485
0.0371769,-0.00230212,0.0245116,-0.0098322,-0.0259226,0.00642395
0.042443,0.0264296,0.0352472,-0.0328528,-0.037983,0.00980717
0.00720671,0.00624374,-0.00581612,-0.0150489,-0.00891303,0.00740117
-0.0560721,-0.0160512,-0.0536225,-0.0317761,-0.0190606,0.0180889
-0.108932,0.00847168,-0.0681681,-0.0122477,-0.0290054,0.00385571
-0.0541952,0.000972583,-0.0279205,0.00132293,-0.0347958,-0.019114
-0.0264111,0.00414025,0.00344547,-0.0182896,-0.0330022,0.010151
-0.0230218,-0.00544652,-0.00936466,-0.00649154,-0.0121381,-0.00573456
0.019932,0.0104831,0.0178757,-0.0110682,-0.024914,-0.00124729
