rotation_x,rotation_y,rotation_z,acceleration_x,acceleration_y,acceleration_z
-3.21438,-0.889895,1.17596,-0.0121562,-0.247158,0.153627
-1.83954,-0.523387,2.44592,0.163172,0.0949638,0.0912717
0.477207,-0.00659715,2.09972,0.0858586,0.364112,0.0513129
0.365448,0.323635,0.308578,-0.0740721,0.28151,0.0589346
-0.526015,-0.0125054,-0.490712,-0.0977322,0.29664,0.0427028
-0.326817,0.0230192,-0.858812,0.0480405,0.209107,0.102782
-0.0478651,0.20903,-1.26712,0.0751024,0.0736373,0.0805663
0.756549,0.28562,-1.10327,0.117847,-0.0729207,0.0541767
1.3253,0.308798,-0.430305,0.0503526,-0.136763,-0.000526667
1.02391,-0.0149909,-0.0201181,0.0737488,-0.225401,0.0758048
-0.616245,-0.138188,0.28973,0.0104043,-0.176463,0.0740436
0.11298,-0.0183742,0.705175,0.00555551,-0.082436,0.0371364
-0.533505,-0.0989748,0.758836,0.000711858,-0.0182513,0.0301995
-0.373738,-0.105834,0.571434,0.0338959,0.07526,0.00913596
-0.660785,-0.11918,0.145201,0.012,0.0806233,0.0196659
-0.230742,0.0277612,0.0614506,-0.0279739,0.0717827,-0.0285288
-0.0314076,0.0636375,-0.105783,-0.00817001,0.0473172,-0.0858362
0.308086,0.187154,-0.184376,-0.0526946,-0.000319302,-0.159498
0.536308,0.194073,0.205349,0.0234267,0.0161226,-0.208706
0.306409,-0.288745,0.112527,-0.0871493,0.0291095,-0.0490994
-0.420612,-0.457358,-0.108133,0.078016,0.0869378,0.0737999
0.313023,0.0144598,-0.590318,-0.00175393,0.0596813,0.0661003
0.598067,0.238694,-0.51805,0.0317487,0.0679566,0.14147
0.589568,0.278225,-0.517269,0.0242938,-0.124801,0.0823779
0.57086,0.370851,-0.0905601,0.0441064,-0.114229,-0.0346971
0.502233,0.299085,0.377627,0.0566933,-0.104373,-0.0164788
0.020692,0.0957854,0.585489,0.0771949,-0.0599405,0.00347984
-0.337946,-0.147641,0.502389,0.0347319,-0.0194618,0.0311174
-0.54035,-0.268476,0.342147,-0.0105141,0.0301031,0.0479913
-0.610702,-0.316048,-0.0146689,0.0459731,0.0101937,0.0919504
-0.107366,-0.130467,0.0383644,-0.000444174,-0.0570972,0.103917
-1.45582,-0.722247,-0.540877,0.127939,0.123745,0.0772616
-0.19717,0.133942,0.320521,-0.0775967,0.0166223,-0.0615923
1.18791,0.757406,1.3196,-0.174171,-0.00653197,-0.157238
1.41375,0.565732,1.1518,-0.0787109,0.180189,-0.119905
0.604012,-0.175529,-0.377511,0.0485867,0.379838,-0.197427
-0.564237,-0.653928,-2.01351,-0.00196868,0.288372,-0.00697052
-0.180292,-0.280344,-3.23359,0.214774,0.224801,0.0908051
-1.22887,0.30659,-4.01809,0.388481,0.122101,0.103395
0.904197,0.589675,-3.70102,0.388689,0.028602,0.0727602
0.928916,0.66101,-2.60302,0.241007,-0.289168,-0.0567573
-0.28451,0.254348,-1.11017,0.22676,-0.366015,0.113966
0.364416,0.195615,-0.208795,0.081121,-0.078208,0.171732
0.204828,-0.114994,-0.141135,0.0440142,-0.0707363,-0.0260283
0.209738,-0.112361,0.145212,-0.0262074,0.0542402,-0.0104665
0.259412,-0.0420254,0.0712165,0.0243026,0.0344387,0.00237906
0.00979033,-0.135599,0.20872,-0.0208869,-0.0442647,0.0309274
-0.0325371,-0.0941401,0.0758067,-0.0350223,0.00303233,0.00154674
-0.0228815,0.0511264,0.0738298,-0.0283954,0.0549692,0.010776
0.1984,0.184363,0.00434605,-0.0273449,0.0126157,-0.0110103
0.130068,0.201462,-0.0205944,-0.0219023,-0.0142862,0.0245342
0.00899129,0.120498,0.0521309,0.0637873,-0.0200463,0.00126755
-0.0570307,-0.0535306,0.0743796,0.0304095,0.0309687,0.00819325
-0.0520806,-0.0675298,0.0125202,-0.0316782,-0.00295961,-0.0459769
-0.532674,-0.0554331,0.00316474,-0.0258029,-0.0362547,-0.157458
-1.62939,-0.377997,0.15928,0.0369671,-0.16603,-0.0348107
-1.2521,-0.572902,1.26246,0.0564914,-0.331169,-0.112331
1.4839,-0.477624,3.17499,0.18191,-0.495787,0.0859551
0.655701,-0.775155,4.93355,0.511454,-0.202046,-0.0633444
0.93748,0.0322102,4.9422,0.772758,0.14843,0.195098
-1.01349,-0.0109591,2.62519,0.245374,0.390184,0.130243
-1.45145,-0.14481,1.02815,0.0551811,0.550896,0.0917161
-1.50012,-0.0521104,-0.347725,-0.100512,0.569294,0.116171
-0.13515,0.402124,-1.4482,-0.000487804,0.434244,0.00622112
1.42605,0.45637,-2.12758,0.211663,0.162992,-0.115117
1.7669,-0.073667,-2.09829,0.227159,-0.186718,-0.0169461
0.136085,-0.502534,-1.26716,0.0204083,-0.42065,0.0766078
-0.294128,-0.274287,0.179634,0.0270792,-0.373525,0.0821017
0.0753065,0.28184,1.32706,0.00705642,-0.271254,0.0462492
-0.06672,0.487409,2.14683,0.0442085,-0.0768021,0.0116017
-0.116509,0.348064,1.85159,0.163138,0.243182,-0.0719302
0.533074,0.153789,0.380825,-0.0355105,0.334385,-0.0844871
0.301743,-0.0348448,-0.690474,-0.0332572,0.289613,-0.055998
0.291188,-0.11509,-1.37914,0.051173,0.146173,-0.00409913
0.214759,-0.142271,-1.68483,0.0665866,-0.0517411,0.0745916
-0.0309886,0.0690542,-1.28325,0.0783972,-0.207247,0.114565
0.505879,0.522254,-0.279832,0.0421417,-0.246037,0.0514576
0.605162,0.664774,0.629934,0.030603,-0.234526,0.0193093
0.183166,0.448132,1.17467,0.0532761,-0.116387,-0.0220525
-0.209475,0.215441,1.10632,0.057865,0.0248387,-0.0146005
-0.0417843,-0.0065861,0.659643,0.097598,0.168231,-0.0218495
2.14335,0.0790972,-0.0977393,0.00618279,0.573141,-0.261687
0.322873,-1.38389,-1.84626,0.353717,0.399066,-0.127757
3.47838,-1.75771,-3.50414,0.36601,0.474126,0.109145
4.76429,-3.03214,-3.59363,0.52251,0.0292466,0.365147
2.57449,-2.24931,-2.8045,0.30346,-0.17627,0.39435
1.4659,-1.32013,-1.54002,0.141496,-0.19384,0.352352
0.983107,-0.458467,-0.746079,0.0956662,-0.0688816,0.118902
0.153447,-0.403706,-0.332845,0.0412898,-0.079002,0.086157
0.127481,-0.174618,-0.0630424,-0.0139334,0.0139112,0.0473539
-0.0336162,-0.0311273,0.0679114,0.0399029,-0.00062649,0.0285754
-0.0834682,0.0416034,0.0993064,-0.00429828,-0.0239141,0.0257673
-0.123704,0.240675,0.301939,-0.049753,-0.083255,0.0667803
-0.77474,0.631175,0.977572,-0.0332614,-0.206834,0.282061
-4.02384,1.81896,2.59029,0.201936,-0.377048,0.59384
-3.83769,1.8615,3.78203,0.602821,-0.0862341,0.587609
-4.53451,2.08738,3.76514,0.714925,0.1677,0.270216
-2.18212,1.60536,3.4106,0.636587,0.392276,0.120437
1.90745,2.02459,1.79487,0.237118,0.780784,0.231951
1.7299,1.81705,-1.50702,-0.0327113,0.976434,-0.160427
-1.96587,0.371817,-3.07783,-0.0431082,0.177464,-0.777126
-3.19134,0.335277,-0.0702253,-0.073043,-0.573657,-0.80169
2.11556,-0.0171624,0.431663,-0.314762,0.807878,0.0967462
0.871778,0.419573,-0.198734,0.0052368,0.042915,-0.1218
2.10435,0.693239,0.452659,0.0784225,0.0496905,0.0946755
-0.877052,-0.226879,0.160048,-0.0529645,-0.045888,0.240491
-0.87287,-0.115073,-0.0415295,-0.0467649,0.0235757,0.0348225
-0.947073,0.142492,-0.000739697,-0.0110065,-0.0103138,0.0397677
-2.05426,0.11766,-0.0196829,0.0358461,1.18315e-05,-0.00896049
-1.23152,-0.226064,-0.138314,0.0864525,0.0735309,-0.186094
-1.30035,-0.321254,-0.236252,0.022386,-0.00591931,-0.140895
0.389821,-0.154771,-0.205359,0.0262591,0.0389768,-0.161289
0.0287662,-0.0113346,-0.192684,0.0686905,-0.0521484,-0.0435765
0.335687,-0.0820416,-0.177186,0.0714507,0.0120445,-0.146375
2.15213,-0.0871361,0.138429,0.0708078,0.0677991,-0.0998758
0.765106,-0.0265114,-0.000711886,-0.00516212,-0.0525046,0.034677
0.498192,-0.0809375,-0.0857645,-0.00395012,-0.0083428,0.042991
0.310376,0.00380835,0.036921,-0.0276475,-0.0171356,0.0756575
0.0526464,-0.00374863,-0.119988,-0.0456492,-0.00614837,0.0955603
-0.377763,-0.064285,-0.105181,-0.0434435,-0.0299217,0.159172
-1.05753,-0.142042,-0.271762,-0.0538285,0.0414161,0.091136
-1.25027,-0.233713,-0.244111,-0.0690783,0.0345091,0.0496701
-0.802191,-0.119607,-0.159832,-0.0231939,0.0434425,-0.0337377
0.0269914,0.0969536,0.0352562,0.0171286,0.0799048,-0.0375967
0.394321,0.12757,-0.0127155,-0.0173904,0.00902587,-0.0349106
0.777227,0.322088,0.2129,-0.00129688,0.0198643,-0.00837898
0.88882,0.371363,0.339074,-0.0278611,0.0347859,0.016534
3.02857,0.656661,0.704236,-0.0664319,0.0444014,0.0575454
1.87069,0.235894,0.263496,-0.07918,0.0401415,0.101691
-0.105743,-0.149842,-0.0448417,-0.0387147,-0.00230354,0.0626584
0.260691,-0.290061,-0.0489716,-0.0293245,0.0283754,0.00674891
-0.357249,-0.21802,-0.0464097,0.0105541,-0.0135033,0.0615078
-0.415888,-0.162136,0.120754,-0.033267,0.00323522,-0.00876462
-0.379059,0.0331517,0.0256015,-0.0109227,-0.0270956,0.0889564
-0.702864,0.0238159,0.0447509,0.147639,-0.0178065,-0.11403
-0.0473227,0.0554364,0.0843944,0.0556415,-0.0484838,-0.0770836
0.864382,0.17991,0.189574,0.0473633,-0.0498302,-0.0907608
0.833057,0.693091,0.428666,-0.0208169,-0.0420676,0.000812769
0.667432,0.536077,0.363888,0.0771219,-0.0241114,0.0784131
1.03222,0.387145,0.263649,0.0178245,0.0304917,-0.0138181
0.0910122,0.467541,0.0170668,0.00767279,-0.0728994,-0.0686896
0.512664,0.126434,-0.00051426,0.0201631,-0.0362273,-0.0342883
0.264223,-0.0627852,-0.191468,-0.00223827,-0.0392076,0.0568953
0.0357192,-0.334037,-0.24826,0.0538636,-0.0335695,-0.0152757
0.140745,-0.317606,0.0298232,0.00499296,-0.0189607,0.031049
0.203865,-0.347485,0.0751293,-0.0439277,-0.00363266,0.0132573
-0.117819,-0.224388,0.0806052,0.0217583,-0.00247151,0.0743496
-0.493541,-0.1567,0.141798,-0.0612634,0.0564611,-0.0084933
-0.985594,-0.219591,0.00466947,-0.0585178,0.0303341,0.0100838
-1.16198,-0.0839855,-0.103715,-0.000314176,0.0479499,0.0625986
-0.83498,0.183055,0.0314718,-0.0409647,0.0526588,-0.0225648
-0.365517,0.433877,0.116008,-0.0124525,0.0512567,0.0213859
-0.157393,0.537422,0.165264,-0.0517437,0.0567586,0.010915
0.179272,0.182568,0.191264,-0.0461766,0.113522,0.0321872
3.57188,0.541943,0.698466,0.0156666,0.139637,-0.30942
2.39797,0.0976732,0.250339,-0.101167,0.128084,0.159536
-0.27286,-0.318416,-0.00163802,-0.0151631,0.0539136,0.0288858
0.0170721,-0.752537,-0.121678,-0.0317103,0.053866,0.00204921
-0.0983025,-0.515433,-0.193097,-0.0285024,0.0650303,0.00972486
-0.763792,-0.549286,-0.292597,-0.00605285,-0.0399777,0.0372343
-0.334579,-0.419053,-0.157209,-0.0134667,-0.0133784,-0.0595766
-0.242639,-0.258827,-0.12051,0.0341932,0.0161978,0.0134511
-0.287574,-0.252439,-0.151702,0.0386611,-0.059467,0.0438032
-0.679757,-0.452956,-0.14653,0.0199453,-0.041239,0.0652623
-1.24174,-0.602191,-0.210707,0.0304745,-0.0321922,0.0291208
-1.14181,-0.284503,0.0792966,0.0456377,-0.0350737,-0.0201628
-0.72433,-0.160984,0.0351831,0.0863203,-0.046877,-0.131746
-0.090757,0.0363183,0.128162,0.048117,-0.0499508,-0.0750647
0.347771,0.242294,0.21074,0.0478235,-0.0462822,-0.108049
0.557935,0.227259,0.25543,0.0421967,-0.0323334,-0.0336571
0.894761,0.485818,0.431309,0.0308454,-0.00166318,-0.0666744
1.68318,0.485207,0.422509,0.0420709,-0.0519516,-0.0285763
1.08363,-0.890768,1.31387,0.0708547,-0.395221,0.127162
-2.41248,-1.34588,2.21511,0.100763,-0.281255,0.624247
-2.47402,-0.390171,1.99393,0.0405678,0.0833484,0.373335
-2.11212,0.35249,1.68703,0.156018,0.0154223,0.194693
-3.65673,0.362891,0.858471,0.0860351,0.229545,0.307452
0.395021,0.333283,-0.270475,-0.0428304,0.240074,0.121819
0.317733,0.698933,0.491874,-0.00960946,-0.12419,0.0483836
-0.942782,0.22002,0.353497,-0.00163472,0.00251347,0.0458405
-1.09314,0.209418,0.33377,-0.0491754,0.175779,0.128821
-0.26399,0.492186,0.517747,0.0817796,0.0655425,-0.170899
-1.41421,0.191402,0.277125,0.0181307,-0.015954,-0.123451
-2.24376,-0.38475,-0.30348,-0.0488218,0.567703,-0.181259
-1.55922,0.248129,-2.7742,0.0461354,0.581978,0.113919
-0.205571,0.269802,-3.23405,0.300341,0.148078,0.0355726
1.97007,0.584303,-2.03662,0.376145,-0.271444,-0.0320989
2.34962,0.616483,-0.574843,-0.14279,-0.148051,0.198946
2.70436,0.852719,0.281849,-0.0130378,0.0994577,0.283022
3.805,0.513396,-1.47477,0.274304,0.227234,0.461871
0.708649,0.406447,-2.88748,0.0954922,-0.0812075,0.284666
0.0110411,0.610479,-1.96506,0.196336,-0.229858,0.208252
1.09133,0.882328,-0.58769,0.266183,-0.443861,0.186644
1.74826,1.18826,0.551752,0.17947,-0.450678,0.0295839
0.853632,0.440538,1.39732,0.169267,-0.211615,0.0107153
-0.26834,-0.0032267,1.26031,0.129253,0.0818032,-0.110678
-0.715884,-0.138405,0.732764,-0.0406822,0.0942338,-0.0945231
-0.546755,-0.0710197,0.856902,-0.0652779,0.156084,-0.0168943
-1.54321,0.0714131,0.632145,-0.00770998,0.0884263,0.00335729
-2.81225,-0.263177,-0.0542429,0.0137271,0.0926434,0.100102
0.21054,-0.443086,-0.22553,0.018025,0.0452553,-0.0348362
-0.59162,0.169869,-0.0743795,0.0103176,-0.0374542,-0.0384497
0.113787,0.174242,0.2883,-0.0115919,0.022041,-0.0172807
0.400211,0.251935,0.248269,0.00820982,-0.0785995,0.0382222
-0.906535,-0.243396,-0.135919,-0.0803232,0.037576,0.118343
0.171573,-0.0794769,-0.00366139,-0.0480014,0.0824816,-0.0847405
0.127267,-0.384016,-0.0798492,0.132419,-0.0505224,0.126703
0.361072,-0.36835,-0.182714,0.0197734,-0.105752,-0.0528764
0.236036,0.0410069,-0.103567,-0.00767517,-0.00163257,0.0178773
0.0675307,0.653698,0.171763,-0.0134059,0.0271517,-0.0758076
-0.105535,-0.0625126,-0.196061,-0.0339168,-0.144945,0.056079
-0.386446,-0.0888888,-0.12963,-0.0213299,0.0478482,0.0311586
0.752707,-0.0149512,-0.115159,-0.014219,0.015934,0.0947875
-0.419954,-0.199011,-0.199559,0.0107986,0.0131719,-0.0469527
-0.893657,-0.324997,0.242892,0.0613699,-0.0562299,-0.0711694
0.663615,0.476712,0.621754,-0.0702941,-0.0521558,0.0297287
-0.758604,0.0149064,-0.188325,0.0109724,-0.00307807,-0.0227327
-0.219001,-0.181131,-0.272647,-0.0459834,0.00516957,0.126553
-0.274757,-0.340329,-0.316698,0.0712407,0.0237916,0.0209969
0.407496,0.0368918,0.0605736,-0.0530249,-0.0340688,0.00232136
0.715108,0.497825,0.500006,-0.0511907,-0.00560945,-0.00246376
-0.208004,0.0788053,-0.0606003,0.0243102,-0.0631576,-0.0776009
-0.27553,-0.216351,-0.27904,-0.00563967,0.00695693,0.0615253
0.018417,-0.406723,-0.284183,-0.0022192,0.0702483,0.0333588
0.0101994,-0.1956,0.104401,-0.0115623,-0.00819266,0.0549705
0.448635,0.421099,0.490959,-0.0319093,0.0146448,0.00285876
-0.842851,0.116411,-0.209596,-0.110088,-0.20972,0.0688866
-0.196168,-0.255466,-0.011377,-0.0124746,0.182234,-0.00193083
0.201731,0.0148946,0.220212,0.0123604,0.089213,-0.02021
0.550275,0.482913,-0.157611,0.0902978,0.0441636,0.00713974
-0.973937,-0.42575,0.0124588,-0.0374029,-0.0573875,0.068757
-1.15261,-0.0417807,0.211237,0.0334595,0.0278297,0.0518811
-0.293259,0.0777973,-0.0630497,0.0338657,0.0134897,0.0742815
-0.203212,0.154788,0.0211946,-0.015107,-0.0260696,0.105304
-0.309684,0.252082,0.0255092,0.0136194,-0.0471336,0.047029
-0.131452,0.163386,0.0823092,0.00688767,-0.0182708,-0.0241603
-0.672235,-0.0507373,0.184247,0.0257739,-0.0582688,-0.0788951
-0.434855,-0.133222,0.153615,0.0113307,0.0450695,-0.0673113
-0.0673448,-0.112164,0.13669,-0.000802815,0.0375866,-0.0485733
0.0163924,-0.0974045,0.0621186,0.00247884,0.00299507,-0.0158657
-0.102094,-0.13903,0.0298888,-0.00613356,-0.0134923,-0.0173799
-0.396985,-0.166502,0.074906,-0.019293,-0.0382569,0.0668295
-0.386921,0.00634013,-0.0394324,-0.0155143,0.00377452,-0.0513605
0.0667223,-0.00262465,-0.0825493,-0.0464253,-0.030441,-0.0747654
0.00498619,0.110965,0.0959813,-0.0136589,-0.00310063,-0.0537142
-0.0699311,0.0767465,0.04357,-0.0120818,-0.025093,-0.0163941
-0.0401959,0.171751,0.0184905,-0.0167498,-0.0287386,-0.0229014
0.0181125,0.202905,0.144584,0.00995922,-0.00652182,-0.0177703
-0.211062,0.19878,0.129862,-0.00879741,-0.0175258,-0.0117287
0.743449,0.437556,0.255829,-0.070468,0.0645367,-0.0374997
0.151059,0.0318485,0.119478,0.00144815,0.0448708,0.0764384
-0.620985,0.130955,-0.348828,-0.0602584,0.0705168,0.108087
1.13227,-0.0282942,-0.251483,-0.0413527,0.203068,-0.0309196
-0.0916621,0.132,-0.744318,0.0183929,0.112154,-0.0118997
1.53799,0.434232,-0.689956,-0.0867551,0.0695193,-0.100854
1.0303,-0.708644,-0.850057,0.326124,-0.157234,0.0388933
-2.75577,-1.5535,-2.43151,0.246088,0.0377039,-0.227692
-0.334403,-1.61863,-1.97969,0.117428,-0.332086,0.103505
-1.5831,-1.18488,-0.0458041,0.0582603,-0.501664,0.285007
-0.392583,-0.412824,1.54563,0.204926,-0.377344,0.251878
-0.88537,0.0972064,2.83758,0.336555,-0.303199,0.262089
0.0814178,0.301648,2.88154,0.259582,0.0532085,0.0998446
-0.944503,-0.0240823,1.86906,0.396632,0.156438,0.131217
-2.02826,-0.416698,0.456132,-0.0352011,0.216322,0.034328
-2.21402,-0.787582,0.251629,-0.341064,0.369349,0.0950633
-2.052,-0.193102,0.0304188,-0.124828,0.582189,0.0479068
-0.0916778,0.551602,-0.25021,-0.168325,0.474766,-0.000459552
3.96524,0.971007,-0.556136,-0.126307,0.479626,-0.287591
0.281347,-0.212969,-1.76853,0.0379547,-0.147344,-0.125837
-0.164,0.142279,-1.61651,0.0422401,-0.0810998,0.0461792
0.726019,0.633799,-0.538298,0.137977,-0.20294,0.0757754
1.25349,0.300363,0.211616,-0.00431073,-0.148455,0.0534217
-0.421406,-0.199389,0.804777,0.212449,-0.132806,0.132032
0.94113,-0.316286,1.13011,-0.0597068,0.119627,0.0841238
0.124386,-0.438836,0.333985,0.250571,-0.017383,0.284922
-0.234987,-0.158824,0.259236,-0.132543,0.14995,0.17764
0.334093,0.0829078,0.0760259,0.206579,0.0549183,0.300768
0.678114,0.251356,0.0377595,-0.0985509,0.165855,0.129133
0.733427,0.232642,-0.86689,-0.155738,-0.0217809,0.122157
-0.933677,0.32129,-0.983754,0.084285,-0.065603,-0.0286477
1.29637,0.273528,-0.454762,0.0402418,-0.1524,-0.253154
0.426646,0.0687763,0.587184,0.0882247,-0.220015,-0.367381
0.579717,-0.520067,1.11405,-0.016364,-0.10386,-0.111092
-1.11692,-0.507761,0.698397,0.0404145,-0.0358364,0.134255
-0.0447183,-0.139567,0.359192,-0.124678,0.178386,0.0725361
-0.555756,0.313609,-0.326263,-0.0780989,-0.00480592,0.184005
0.10692,0.650143,-0.0118406,-0.0918502,0.186619,-0.149633
1.32912,0.684929,-0.360079,-0.00538296,-0.0221233,-0.145096
1.14266,0.25603,-0.143238,0.0994844,0.0832176,-0.191072
0.769792,-0.217434,-0.447141,-0.0923288,-0.0762499,0.0738274
-0.174327,-0.145943,-0.288733,0.148959,0.036649,0.00786924
1.68336,-0.013381,-0.0368949,-0.182161,-0.0049721,0.121685
1.99533,-0.285276,-0.228421,0.0883969,0.108704,0.386551
-0.425699,-0.13825,-0.274768,0.169125,0.12759,0.205185
0.388272,0.479507,-0.343038,0.0430063,-0.0530088,0.0607986
0.936028,0.699445,-0.170393,-0.0385555,-0.0774154,-0.0225172
-0.169278,0.114753,0.353868,0.0673295,-0.00747517,-0.124233
-0.326946,-0.204776,0.208973,-0.048893,0.0225007,-0.0520661
-0.842122,-0.209571,0.297892,0.0360241,0.0504591,0.000950217
-0.271668,-0.294882,0.017443,-0.00634444,0.080188,-0.0179709
0.492055,0.113528,-0.0603425,0.0179631,-0.0909233,0.101184
-0.3437,0.0852068,-0.12419,0.048095,-0.046928,-0.0458319
-1.51504,0.257945,-0.198077,-0.0777708,-0.0848921,0.0820677
0.407623,-0.0243948,0.443477,0.0543589,-0.0721714,-0.107942
0.120783,-0.120053,0.593672,0.0173014,-0.07313,-0.0793797
-0.331136,-0.0161534,0.560322,-0.00661433,0.0695593,-0.10551
0.293231,-0.374735,0.411126,-0.00416338,0.160401,-0.0143004
-0.310509,-0.197802,-0.072014,-0.0569996,0.158337,-0.113485
0.41826,-0.171218,-0.437003,-0.0209732,0.110888,0.0356317
0.0690248,0.326515,-0.617834,0.0246383,0.0329526,0.0174985
0.895054,0.351598,-0.576437,-0.0228611,0.0341298,0.159004
0.462161,0.305468,-0.265773,0.0127885,-0.11693,0.100841
0.398121,0.243539,-0.278433,0.0579386,-0.124852,0.0618488
-0.176388,0.00391643,-0.11235,0.0356779,-0.174741,0.0329809
-0.473608,-0.131927,0.265647,0.031083,-0.115634,0.0342812
-0.400424,-0.0815709,0.383123,0.0418994,0.0503379,0.0481905
-0.381938,-0.16327,0.0963092,-0.0185111,0.0758465,0.00673699
-0.332283,-0.092942,0.0191122,-0.00819045,0.0803359,0.032639
-0.188694,-0.00661424,-0.031126,-0.00129676,0.0563949,0.00265634
-0.351831,0.0789201,-0.0579369,0.00107741,-0.00549763,0.00919729
-0.673625,-0.0949306,-0.0441236,0.0165422,-0.0428657,-0.00580645
-0.619771,-0.340896,0.430996,0.0178301,-0.00861722,0.112765
-0.424561,0.121482,0.426592,0.115975,0.0680642,0.00192153
0.860977,0.0965469,0.162318,0.109754,-0.0608028,-0.0898269
-0.62503,-0.385418,0.624654,-0.0752891,-0.0492709,-0.0201719
-0.0605823,-0.214726,0.742121,-0.0533956,0.09577,-0.00629032
0.134621,-0.0285274,0.405084,-0.0750802,0.161813,-0.00198495
0.146663,0.0368409,-0.0814384,-0.0979642,0.178279,0.0339195
0.676282,0.0411762,-0.427799,-0.011471,0.141555,-0.0341463
0.480991,-0.175443,-0.993403,-0.0907097,0.0428621,-0.030943
0.0752866,-0.212444,-0.94767,0.0180328,-0.0473981,0.0133036
0.0934842,-0.0259708,-0.594087,0.0759321,-0.126471,0.00276411
-0.226016,0.030476,-0.217418,0.0532084,-0.156396,0.0780367
0.0718006,0.35527,0.556217,0.0432441,-0.151029,0.0300502
0.723624,0.172377,0.706221,0.287492,0.257156,0.0133305
0.590691,0.116524,-0.136921,-0.0236284,0.0233818,0.0172529
0.0950223,0.145675,-0.174225,0.0184089,0.023556,-0.00212979
-0.0810618,0.00229963,-0.385508,0.0198041,-0.0340015,-0.0130217
0.149026,-0.0160483,-0.394146,0.0178845,-0.00592703,0.0642928
-0.342491,-0.356919,-0.0604187,-0.0213937,-0.121925,0.0874956
-1.01991,-0.208637,0.144432,0.0115635,-0.0507517,0.0789894
-0.272561,-0.143925,0.210918,0.0668328,0.0119304,0.0607086
-0.128554,-0.0414548,0.228956,0.021783,-0.0248074,0.0332476
-0.456764,-0.030536,0.222314,-0.0447008,-0.0262217,0.0188448
-0.476026,-0.0255164,0.0298876,0.0149163,0.00679481,-0.0426322
-0.495439,0.157375,0.152572,0.0146712,-0.00836051,-0.00671107
-0.599723,0.215168,0.169969,0.00403708,-0.0248074,-0.0172737
-0.32424,0.0122024,0.285572,0.020641,0.0243186,0.0258417
-0.216396,-0.0102414,0.325654,-0.0328541,0.0623076,-0.0516856
-0.0624157,-0.0820683,0.245495,0.00834191,0.10111,-0.0455921
0.106497,-0.107219,-0.0144108,-0.00920981,0.0987471,-0.0260154
0.279541,-0.0274325,-0.127536,-0.0231143,0.0734596,0.00160706
0.411253,-0.0116317,-0.197663,-0.0341768,0.0431997,0.0213276
0.37961,0.0106031,-0.324002,0.00805527,0.00881293,0.0462074
0.172618,0.0544674,-0.37528,0.00518823,-0.0429534,0.0368414
0.328095,0.202025,-0.225004,-0.0278292,-0.0668713,0.0163928
0.439928,0.188666,0.124884,0.0219795,-0.0602142,0.0001387
0.533084,0.0922946,0.0318337,-2.51532e-05,0.0214905,-0.0919722
0.662166,0.0783572,0.0591203,-0.0390494,0.025176,0.0723256
-0.116944,-0.00335759,0.0289521,0.00378335,-0.0416822,0.0229867
0.237037,0.0637287,0.0618973,-0.0111866,0.012674,0.0121443
0.246337,0.156868,0.18313,0.0159056,0.045357,-0.0284523
-0.370142,0.157911,-0.0980505,0.00546253,0.0108631,0.0616142
0.404624,-0.269849,-0.035747,0.0184014,-0.0251365,0.0391245
-0.0932897,-0.239661,-0.0922996,0.051319,0.0874831,-0.0488602
0.0397696,-0.273977,-0.11081,0.0365478,-0.000162721,0.0588149
-0.0269482,-0.283419,-0.0415499,0.0306374,-0.0146326,0.0638595
-0.27541,-0.312126,-0.07221,0.0363739,-0.0334963,0.0978195
-0.171548,-0.230129,-0.172787,0.0451486,-0.0294455,0.076355
-0.230832,-0.318486,-0.635073,0.0707031,-0.0178741,0.0289747
-2.38594,-1.11581,-1.20746,-0.0287665,-0.024573,0.0145179
-0.463277,-0.499613,-0.468092,-0.0912737,-0.0687068,-0.109226
0.770392,0.312221,0.674502,-0.118462,-0.124405,0.0179998
1.26233,0.783695,1.11242,-0.0557863,0.0331235,0.0394158
0.601699,0.631593,0.58846,-0.0026626,-0.00486231,-0.0369098
-0.022286,0.435039,0.317083,0.00951362,0.038986,-0.165281
-0.216502,-0.0897961,-0.575602,0.06095,0.188376,-0.111624
-1.89449,-0.0819759,-2.32671,0.027742,0.391897,0.0165559
0.387867,0.776347,-3.4659,0.161693,0.338523,0.0838974
0.363348,1.1334,-3.32193,0.30095,-0.0311875,0.121308
-0.465915,0.736051,-2.44527,0.374807,-0.328506,0.0630363
-0.603967,0.344054,-1.26367,0.286166,-0.226904,-0.103122
-0.776203,-0.291011,-0.431084,0.112398,0.0215575,0.00648606
0.082574,-0.361089,-0.428484,-0.0137078,0.0159768,0.00921869
0.180881,-0.357566,-0.203763,-0.0434811,-0.0425739,0.060262
0.268785,-0.242128,-0.125119,-0.0498371,-0.0446193,0.0204372
-0.0248592,-0.316542,-0.0456001,-0.0160995,-0.0119377,0.0228137
-0.00263481,-0.313399,-0.0711801,0.00494,0.00625134,0.000523806
0.0854082,-0.0857771,0.0206282,-0.0270369,0.00136727,0.00329018
-0.0657572,-0.112323,0.0458759,-0.0470813,-0.024624,0.0516903
0.0338344,-0.0474142,-0.0546053,-0.0124055,0.0201689,0.0122957
-0.0483002,-0.00786198,-0.0733312,0.015266,-0.00689983,0.00515866
0.0456901,0.0433992,-0.0401905,0.00717339,7.22408e-05,-0.00983083
-0.0180879,-0.00670497,-0.0101897,0.0124479,-0.016899,0.00439239
-0.0630996,0.0242261,-0.0565023,-0.00273007,-0.00566155,-0.00939798
0.028778,0.0605405,-0.0189963,-0.00839463,-0.00739223,-0.00672102
-0.0958988,0.00295725,-0.0158848,0.0137277,-0.00775671,-0.00214767
-0.0298519,-0.0419543,-0.0142785,0.00316244,-0.00530106,0.00340891
-0.0170383,-0.038752,-0.00997712,-0.0041047,-0.00630003,0.00578451
0.0181114,-0.000332687,-0.0154369,-0.0216365,0.0175399,-0.00846815
0.0299053,0.0562854,-0.00827973,0.0143277,-0.00886691,-0.0095998
-0.00277366,0.0585497,0.0503467,0.017256,-0.0107015,-0.00332773
-0.00277429,0.0318491,0.0526555,0.0102591,-0.0226648,7.83205e-05
-0.0114007,0.0318249,0.0355298,-0.00940332,-0.00102615,-0.00071764
0.0386786,0.0819856,0.031117,-0.0224555,0.00115526,0.00292313
0.0237448,0.138598,0.023216,-0.000397891,0.00225264,0.0119046
0.0607044,0.199351,-0.0379415,0.0135621,-0.0266756,0.00789332
0.000262914,0.148217,0.0155836,0.0304465,-0.00755525,-0.0100442
0.566603,0.291824,-0.0825911,-0.0976089,-0.00107723,0.0800803
-0.0132428,0.396868,-0.127111,0.0402724,-0.00271994,0.0275952
-0.178778,0.277574,-0.00195071,0.081304,-0.0101792,0.00569224
-0.230366,0.142153,0.114128,0.0716702,-0.00585449,-0.00573778
-0.207229,0.0299028,0.0732727,0.0433637,0.0272436,0.00801826
-0.0723148,-0.109163,0.018053,0.0236675,0.00455868,0.00417352
-0.0457491,-0.151925,0.0098808,-0.000948593,0.00720286,0.0153286
0.00200963,-0.135996,-0.0231656,0.00674544,-0.00884974,0.0126261
0.155744,-0.141365,0.0276623,-0.00342482,0.00270629,0.0123729
0.407772,-0.187626,-0.0512285,0.0117728,0.016192,-0.0122877
0.42626,-0.284722,0.0199884,0.0208569,-0.00934076,0.0156446
-0.530551,-0.302151,0.0239987,0.0114721,-0.0681536,0.0168732
-1.22281,-0.259878,0.074553,-0.0104751,0.0113068,0.0461257
-0.056782,-0.140279,-0.0543424,-0.0451677,-0.0175885,0.0108428
0.222539,-0.0539326,-0.0356939,-0.0271858,0.00540107,-0.00147152
0.345447,0.0123018,0.0209657,-0.0273479,-0.0024296,-0.00129509
0.802103,0.122902,-0.0635181,-0.0426745,0.067929,0.0196247
0.35778,0.129645,-0.0652253,0.00565639,-0.0137824,-0.0410507
0.0587346,0.0872558,-0.00089631,0.025465,-0.00562716,0.0191392
-0.0232627,0.0691742,0.00853138,0.0113841,0.00477982,-0.00339055
0.394603,0.0913409,0.0377332,-0.0105713,0.0134923,0.00179553
0.716252,0.360204,-0.00874917,-0.0421822,-0.0435738,0.0668157
0.255319,0.249292,-0.104849,-0.00992727,-0.0288609,-0.00565696
0.0177295,0.105292,-0.0887776,0.0473756,0.00686735,0.0280735
-0.148523,0.0584131,-0.0901628,0.0243258,0.000954628,0.0297545
-0.0558639,0.0223314,0.0845715,-0.00492884,0.0559568,0.00755286
-0.824122,-0.164002,0.0967917,0.0105418,0.0428718,-0.0297178
-0.989607,-0.322045,0.0555313,0.0215514,0.00837064,-0.0516909
-0.0933092,-0.102646,0.0702841,-0.0451531,0.015803,0.0139741
-0.00424145,0.0595019,-0.0169787,-0.0177668,0.0289528,-0.00122952
0.180091,0.165098,-0.0265884,0.000772119,-0.00632888,0.00733685
0.0757829,0.124622,-0.00427603,0.0149525,-0.0209777,0.028663
0.0141273,0.0189763,0.0292978,0.0173068,0.000356138,-0.0007267
0.612885,0.0954055,0.0128807,-0.00200874,-0.0157349,0.0286942
-0.141659,0.0670914,-0.0121997,0.0209311,-0.0528957,0.0492294
-0.290918,0.0137771,-0.0220297,0.0175364,-0.010532,0.0198565
-0.175403,0.0821719,0.0452734,0.0149203,0.0278237,0.011296
-0.039087,0.118362,0.03059,0.00734882,0.00948471,-0.0014627
-0.011653,0.0637919,-0.00955208,0.0262949,0.00649858,0.0167725
-0.0487597,-0.0354529,0.0304845,0.0382181,-0.0207461,0.00561166
-0.0401498,-0.106993,0.0512804,0.01095,-0.00641811,-0.00832868
-0.0423459,-0.160411,0.0452068,0.0119219,-0.00884157,-0.0039264
-0.035072,-0.261935,0.0234551,0.0167625,0.0159895,-0.0120939
0.017754,-0.191616,-0.0580045,-0.0365437,0.00427425,0.02779
-0.0109298,-0.122146,-0.0500167,-0.0172091,0.0105061,-0.0282822
0.0488519,-0.0516677,-0.0374276,-0.0105653,-0.0176026,0.0149674
0.00523134,-0.0345279,-0.0280843,-0.0024986,-0.0107406,0.00751781
0.00316937,-0.0110085,-0.0186302,-0.0113962,-0.00339329,-0.003811
0.0276805,0.034899,-0.0220395,-0.00639781,-0.00624442,0.00129116
-0.0136842,0.0467351,0.00871226,0.0028519,-0.0110385,0.00532603
0.0118752,0.0200116,0.00898029,0.00281227,-0.00910199,0.00148773
0.00209697,-0.0633438,-0.0150889,0.0123798,0.00162786,-0.00615001
0.00749226,-0.107118,0.000173387,0.00814712,-0.00208384,0.00569034
0.0108093,-0.109221,0.0205006,0.0013153,-0.0141203,-0.000889063
0.0267298,-0.0675974,0.00639929,-0.0263733,0.0117733,0.000417352
0.0915913,-0.00680723,-0.0215324,-0.00484815,0.00927353,-0.00298929
0.108889,0.00606844,0.0190514,0.00615525,-0.00725639,0.00240123
0.0206584,0.0393046,0.0505593,-0.00514609,-0.0130525,0.00377619
0.00762803,0.024291,0.0110741,-0.00879356,0.00367033,-0.00312793
0.0469825,0.0498731,-0.00283264,-0.000404328,-0.000750721,0.0125715
-0.00408483,0.0531392,0.00977465,0.0094178,-0.0138156,0.0148875
-0.00613378,0.0125788,0.0271261,0.00750741,-0.0014081,0.00085175
0.0151405,0.0296416,0.0196144,0.000891328,0.00102931,0.00266325
0.00750123,0.0135738,-0.00915778,0.00507036,0.00687951,0.00348902
0.0042094,0.0017994,-0.0240508,0.00432256,-0.00752276,0.00812972
0.00224713,-0.00562576,0.00483753,0.0130334,-0.00347698,0.00116277
-0.00937719,-0.0045214,0.0208148,0.00118822,-0.010473,0.00543475
-0.00729511,-0.00026522,0.0122476,0.00307947,-0.0116873,0.00189435
0.030008,0.00611829,0.0134134,0.00430304,-0.00317377,0.00245929
0.0352923,0.00930667,0.00593156,0.00504157,-0.00298721,0.00767708
0.176888,0.0251846,-0.0150072,0.000414997,0.00253797,0.00871587
0.051325,0.0189207,0.01341,-0.000960052,-0.00695813,0.00196075
-0.059388,0.0062174,0.031241,0.00661924,-0.0143732,0.0112591
-0.0371397,0.00616321,0.00995596,0.00805715,0.00307834,0.00643456
0.00223171,0.0146624,0.000432322,-0.000269085,0.0100133,-0.00375593
0.0829953,0.00278969,-0.0344464,0.00706261,0.00494182,0.005229
-0.00331161,-0.046275,-0.0301777,0.0113392,-0.0103413,0.0127684
0.084209,-0.0719309,-0.00297173,0.009009,0.0200402,0.000288367
-0.276725,-0.0715767,0.0426834,0.00587744,0.00355572,-0.0560068
-0.158917,-0.0322848,-0.0383304,0.0103844,0.00907904,0.00531149
-0.193854,-0.0535533,0.00120909,0.00262231,0.0202039,-0.0411409
0.526579,-0.260185,0.0447777,-0.0273828,-0.0163236,-0.0345243
0.53601,-0.372383,0.0284467,0.042224,0.0183957,-0.0182481
0.593423,-0.283505,0.177668,0.00817075,-0.10735,0.0172899
1.87078,-0.193073,1.7418,-0.0246514,-0.507047,0.0417763
1.42994,0.814724,3.65682,0.0988386,-0.332311,0.162837
0.749892,1.65558,4.07407,0.420341,0.175327,0.148204
-1.16411,1.34043,2.61906,0.40594,0.0731747,0.0163671
-1.09778,0.399779,1.67876,0.143155,0.280391,-0.0839322
-0.360332,0.147778,0.830533,-0.00759268,0.249926,-0.145155
-0.684663,-0.186573,0.0782303,-0.0046649,0.276387,-0.0932187
-0.499119,-0.310741,-0.598736,-0.0379055,0.183673,-0.0298398
-0.704595,-0.30582,-0.92755,0.0307482,0.0605801,0.0830082
1.00913,0.208862,-0.908445,0.0470145,0.0206223,-0.00398976
0.596902,0.178102,-0.35099,-0.0176991,-0.200177,0.00043565
-0.272627,0.00558197,0.18644,0.0275373,-0.119474,-0.0282145
0.370652,0.021655,0.493253,0.0579828,-0.0420918,-0.0392395
0.0775481,-0.131947,0.492083,-0.000411272,-0.00672787,0.00116622
-0.0405739,-0.143874,0.339997,-0.00678504,0.0635143,0.0413666
0.0909346,-0.0333899,0.0491587,-0.0196925,0.0902665,0.0471069
0.111831,0.00995142,-0.20213,-0.0191655,0.0528664,0.0315911
0.198512,0.0321136,-0.31948,0.00864333,0.00593114,0.0106221
0.267997,0.0609653,-0.28415,0.0221675,-0.0419589,0.00504667
0.114357,0.020747,-0.137019,0.0194247,-0.0784648,0.0258269
-0.00208526,0.0199897,-0.00923423,0.018749,-0.0819799,0.0417544
-0.107744,0.0587812,0.136493,0.00317442,-0.074176,0.0439674
-0.170828,0.103933,0.273797,0.00550789,-0.0338123,0.0348123
-0.17814,0.105049,0.298336,0.00353378,0.00953072,0.00117123
-0.288755,-0.00406098,0.162937,0.0133156,0.0340059,-0.0233467
-0.282079,-0.0609005,0.0372528,7.55191e-05,0.0413012,-0.0148299
-0.215988,-0.0427855,0.0405888,-0.0141801,0.0204096,-0.000498295
-0.146613,-0.00328538,0.0566173,0.00471562,0.0302455,0.00597489
-0.115844,0.0158776,0.0331031,0.0105366,0.0232983,-0.00638783
0.11451,0.0809129,0.0613245,-0.0220751,0.0294864,-0.0297689
0.0289531,-0.0750489,0.0224836,0.0148445,0.0637358,-0.038443
0.171224,-0.200264,-0.0509653,-0.0124021,0.000593901,-0.0158972
0.27013,-0.206802,-0.0815372,-0.00195491,0.0303247,0.0128381
0.113054,0.13389,-0.186905,-0.0144185,0.00880116,0.00433576
0.267738,-0.0253095,-0.141488,-0.0102935,-0.0138584,0.0205535
0.316333,-0.0123414,-0.0345441,-0.0123042,-0.0116216,0.0285791
0.146523,-0.0390293,-0.0980452,-0.00202656,-0.018901,0.0211725
0.104066,-0.042153,-0.0704052,0.00993598,-0.021301,0.00606459
0.000999852,0.155597,-0.0400203,0.00238913,-0.0370786,0.0334786
-0.130161,0.0819704,-0.0507176,0.00954276,-0.0397315,0.0420362
-0.0731727,0.0511044,0.0383786,0.0171587,-0.0305654,0.014107
-0.0462779,-0.0236021,0.0881097,0.0119027,-0.0104619,-0.00604904
-0.0804905,-0.0759441,0.0733626,0.00950277,0.00611049,0.0171061
-0.0963157,-0.131425,0.104649,0.00328398,0.00345159,0.0214839
-0.0241375,-0.266134,0.0705355,0.0194178,-0.00725609,0.0280032
-0.064089,0.0359977,-0.0448296,0.00263083,-0.00625956,-0.0125353
-0.182434,0.329777,-0.0835061,0.00299156,0.00715315,0.00434548
-0.00410016,0.0862433,0.00421903,0.000606298,-0.0123327,0.0331187
-0.227454,-0.0320215,0.0821443,0.00669277,-0.00946975,-0.0181988
-0.023019,-0.00551586,0.0560251,-0.00908661,-0.0231749,-0.00806183
-0.187037,0.00210513,0.0671143,-0.0060178,0.00600544,-0.00805104
-0.606084,0.0418499,0.0129359,-0.0799962,-0.0185952,0.0778949
-0.11522,0.040313,-0.042913,0.0157986,0.0571939,-0.0212564
0.0235823,0.17166,-0.00691612,-0.0247774,0.00982213,0.0296314
0.0202482,-0.0142161,-0.0132039,0.00660461,0.0403466,-0.0170743
0.205405,-0.109482,-0.045015,0.00797528,-0.00333941,-0.00776845
0.177865,-0.177768,-0.0115538,0.00465649,0.00432509,-0.0129761
0.0892051,-0.0955272,-0.0562249,0.00289428,-0.0266231,-0.0102327
0.29485,0.220457,-0.0842151,-0.00177515,0.0168179,0.0229596
0.186185,0.169279,-0.0768113,-0.00471145,-0.0276086,0.0279
0.090284,0.0208918,-0.0644543,0.00210786,-0.0141015,-0.00865471
0.039091,-0.0100563,-0.0697887,0.00649232,-0.0147765,-0.00191605
-0.0269174,-0.067666,-0.0557704,0.00360328,-0.00198323,-0.000240922
-4.8019e-05,-0.103931,-0.0137662,0.00675744,-0.00719333,0.0358972
-0.101584,-0.0334546,-0.072301,-0.000158191,0.00369349,0.0144411
0.0947589,0.0281153,-0.207656,0.0500177,0.0932267,-0.155353
-0.0349347,0.116192,0.0124544,-0.000643909,-0.0368487,0.0286919
-0.0789044,0.0961602,0.144909,0.0113657,-0.0142021,-0.00636888
0.0816802,-0.0396918,0.10579,0.0084241,-0.0130709,0.00915056
-0.127658,-0.0183187,0.0204604,-0.00594252,-0.0461292,-0.00763494
-0.0574295,0.0702474,-0.00335635,0.00241685,-0.0123668,0.023267
-0.145667,0.0265837,0.0339906,0.0113634,-0.0211951,0.0168479
-0.132688,-0.0353157,0.0718359,-0.00183547,-0.00673264,-0.00494736
-0.15915,-0.105735,0.107453,0.00516135,0.00144598,0.00153428
-0.15493,-0.0619613,0.0965004,-0.0116714,0.0014317,-0.00905812
-0.139245,-0.0695364,0.0474596,0.00256753,-0.0035277,0.00969297
-0.151117,-0.0909321,0.0240473,-0.00320899,0.00178567,0.0102585
-0.032819,-0.0814019,0.0276347,-0.000354648,0.0179782,-0.0185397
0.0755736,0.180102,-0.0441743,-0.0208178,0.00209761,0.00307018
-0.166585,-0.0675835,-0.070188,-0.00876915,-0.00661087,-0.00903445
0.0445545,0.108531,-0.0577155,-0.00750005,0.0198743,-0.00595003
0.0265007,0.0882697,-0.0458984,0.00122553,-0.00699398,-0.0156993
-0.0341423,0.00396668,-0.0231406,0.000646532,-0.00854069,-0.0322036
-0.0765223,-0.0760337,0.0242309,-0.00570941,0.0159888,-0.000340343
-0.056726,0.109971,0.110711,-0.0153975,0.00784862,0.0287434
0.159126,-0.024896,0.0482874,0.00565213,0.0364439,-0.00155324
0.195062,-0.0335519,0.000396503,-0.00267696,-0.000953555,-0.0363537
0.116182,0.0110446,-0.187167,0.000192761,0.00811362,-0.00515366
0.126907,0.0601865,-0.179966,0.00986964,-0.00296426,-0.00210267
0.256369,0.154232,-0.0988881,-0.0198629,-0.0312549,0.0465986
0.176616,0.0315153,-0.0609962,0.000253022,-0.00637621,0.00908083
0.163878,0.0507638,-0.0547585,0.00115806,0.0177369,-0.0175991
0.067708,-0.0208028,-0.094186,0.00827688,-0.00207323,-0.00156486
0.0173092,-0.0454241,-0.145499,-0.00223064,-0.0205683,0.0237427
-0.0395777,-0.250253,-0.018309,0.0195662,0.0150789,0.0255374
0.00777334,0.0723956,0.0310622,0.00283962,-0.0630735,0.0306817
-0.0838049,0.110931,0.0368792,0.0200312,0.041805,-0.0433572
-0.0992397,0.159164,0.124122,0.00259632,-0.00749421,0.00569844
-0.209999,0.117609,0.1368,0.00501537,0.00516391,-0.00732964
-0.0935186,0.0286621,0.0234883,0.00380135,-0.00711077,0.0226155
-0.109501,0.0051781,0.0257164,0.00010401,-0.0133899,0.00368947
-0.109207,0.0159432,0.0737294,0.00593239,-0.00972879,-0.000396609
-0.0890488,-0.0930363,0.0691677,0.00951642,-0.00347698,-0.007393
-0.177497,-0.0854966,0.0666513,0.0145171,-0.00472075,-0.000254631
-0.189009,-0.153782,0.107653,-0.0144441,-0.0076105,0.0171906
-0.229546,0.035279,0.082767,-0.0176673,-0.00640747,0.0213484
-0.00620065,0.096936,0.00841193,-0.00238806,0.0492005,-0.00359255
-0.00652552,0.0605277,-0.0426383,-0.00499707,0.0512652,-0.0321093
-0.00121163,-0.0313321,-0.0366796,-0.000823736,0.0255652,-0.027962
0.0114619,-0.0399193,-0.0547393,0.00109017,0.0107093,-0.00283396
-0.00653654,0.0252783,-0.0413394,-0.0150337,-0.0137851,0.0457051
0.0660169,0.0669064,-0.0285174,0.00377685,0.00440595,0.00449353
0.0332379,0.0349638,0.0164414,0.00463963,-0.000639528,-0.0071243
0.0192147,-0.00139023,-0.00901576,0.00525975,-0.008843,0.00720257
0.0148561,-0.0281155,-0.0227499,0.000532687,0.00154948,0.00331175
-0.0158048,0.00401958,0.0143208,-0.00158018,-0.0106826,0.00678903
-0.0169981,-0.00883372,-0.0059001,0.00231576,-0.00467965,0.00834781
-0.0233204,-0.00774071,0.00582311,-0.000561595,-0.00283343,-0.00138909
-0.050972,-0.0055682,0.0142521,0.00115383,-0.00218907,0.0004825
-0.0324831,-0.0738264,0.0831435,-0.000435054,-0.00784445,-0.000117242
0.121034,-0.0141083,0.0918801,-0.0057447,-0.00108433,0.00665116
0.0831995,-0.00996516,0.00089166,-0.00761306,0.0170213,0.0125352
0.0469135,0.0274257,-0.0123065,0.00355381,0.019497,-0.00668818
0.044645,0.00816297,-0.03356,-0.00150585,-0.00454336,0.00138777
-0.0011142,-0.0280993,-0.0206739,0.00725728,-0.0181233,0.00497353
-0.00732995,-0.00561436,0.00693745,0.00561315,-0.00999939,0.00585902
-0.0178936,0.0115086,0.0206776,0.00119746,-0.00182694,0.00853461
-0.006241,0.028569,0.00778814,0.00341618,0.0067108,0.00202978
0.00428577,0.00182354,-0.0112331,0.000406981,0.0067921,-0.00955677
0.00648516,-0.00243112,0.000557377,-0.00129175,6.66976e-05,0.0050813
2.744e-05,-0.00351272,-0.0101452,0.00284839,-0.00362426,0.00682622
-0.0181117,-0.00243818,-0.0144944,0.00332516,-0.00613552,0.00150496
-0.00312377,-0.00242966,-0.00268367,0.00348866,-0.00176525,0.00106913
0.00544308,0.00612073,0.00370356,0.0015555,-0.00289398,0.00447446
0.00336362,0.00720579,0.0122356,0.00141859,-0.000668645,0.00284398
0.0139571,0.011452,0.00156312,0.00119287,0.0194794,-0.0121449
0.0309482,-0.0142112,-0.00568448,0.000193357,0.00789171,-0.010349
0.0266744,-0.0120755,-0.00785104,-0.00120562,-0.00514984,0.00462878
0.00216647,-0.000307786,-0.00908973,0.00208658,-0.00507915,0.00763422
-0.00523958,0.00291766,-0.00059155,-0.00159502,-0.00473464,0.00944281
-0.0319021,0.00506536,-0.00497654,0.00226724,-0.00385758,0.00541306
-0.0212049,0.0125466,0.00142427,-0.001656,-0.00216651,0.000752568
-0.00517969,0.00720597,0.00899956,0.0041123,0.00781935,0.000110686
0.0267211,-0.00778856,-0.0004018,-0.000828922,0.0059796,-0.00697112
-0.00327832,-0.0174268,-0.0271624,0.00083214,-0.00361443,0.00155818
0.00648144,0.00290789,-0.000545515,-0.000650167,-0.00966525,0.00570333
0.0033502,0.0061344,0.0101044,0.000925303,-0.000733733,0.00067538
-0.00201089,-0.00989264,0.0059159,0.001634,8.13305e-05,-0.00316954
-0.0117002,-0.0173909,-0.0100981,-0.00316608,-0.00287512,0.00588405
-0.028795,-0.00777951,-0.0187716,0.000254273,-0.00820869,0.015874
-0.0242832,0.0318083,0.0194511,0.00302303,-0.0161429,0.010314
-0.016769,0.0147298,0.0302754,0.00400966,0.0019381,0.00158936
-0.0136396,0.00829999,0.0196436,2.5034e-05,0.0097414,-0.00482488
-0.00101022,0.000767376,-0.00590107,0.0017969,0.0130735,-0.0057078
0.00208981,-0.000330335,-0.0219109,0.000392556,0.000651509,-0.00072515
0.00642287,0.000754638,-0.0101476,-0.000110269,-0.00758794,0.00548905
0.0278335,-0.00350371,0.0070541,0.00376481,-0.00350034,0.00406516
0.015043,0.000776342,0.00591096,-0.00416416,-0.0059388,0.00177664
-0.0105783,-0.00669436,-0.00161681,0.0015173,0.00454786,0.00641173
0.00217302,-0.000306721,-0.00801956,-0.000174403,0.00382304,0.00484097
-0.014873,0.00504783,-0.00811981,0.00215113,-0.00613767,0.00374979
0.00332201,0.000785752,0.00586568,0.00117373,-0.00322276,0.000741124
-0.000920903,0.000794363,0.00905547,0.000896573,-0.000405729,-0.000165999
-0.00206464,-0.00243228,-0.00374823,-0.00212693,0.00385416,-6.3777e-06
0.00644944,0.00289884,-0.00588839,0.00303543,0.00692394,6.71744e-05
0.0214825,-0.00882755,0.0145455,0.00016892,-6.3628e-05,-0.00355655
0.0470924,-0.0237877,0.022216,-0.000131011,-0.000670731,-0.000950634
0.0298858,-0.0334336,-0.00342806,0.00659561,0.0111931,-0.00518596
0.01606,-0.0195314,-0.000364154,0.00403053,0.000856638,0.00351387
-0.0383103,0.0264268,-0.00941331,-0.00168413,-0.000813067,0.013995
0.0395746,0.0242622,0.00798695,0.00899041,0.0183111,0.0053947
0.00443082,0.0104092,0.0122196,0.00453049,0.00173563,-0.00102836
-0.00841907,-0.0141639,0.00378176,-0.00266296,-0.00111473,-0.00494254
-0.00100404,-0.037679,-0.00138034,-0.00299197,0.0073761,0.00598788
-0.00426189,0.0445445,-0.0190209,-0.00201041,0.00238195,-0.00116253
-0.00962258,0.00395349,-0.0209149,0.00638545,-0.00799555,1.06692e-05
0.0117697,-0.01206,-0.00577128,0.00381917,-0.00705463,0.00412184
-0.00103644,-0.0131241,-0.00901787,-0.000745177,-0.00279391,0.00358152
-0.0127286,-0.00669831,-0.00483028,0.00250608,0.00127208,0.00909549
0.00335558,0.00399957,0.0111874,0.00149918,0.000387579,0.00229275
-0.0105787,-0.00776366,-0.00160751,-0.000499904,-0.00147545,0.000182688
0.00228197,0.000794407,0.0101347,-0.00147206,-0.00342038,0.00717264
0.00339924,0.0146928,0.0175286,0.00193548,-0.00313205,0.00214517
-0.00725024,0.0264511,0.0174122,-0.00155848,-0.00285321,0.0056752
-0.00623688,0.0242988,0.00888268,-0.000168324,-0.000635862,-0.000722229
-0.00099062,0.0146582,-0.00385541,0.000526309,-0.00107944,-0.00353485
0.0022278,0.00718595,0.000478794,0.00453681,0.00234157,0.00110739
-0.00413088,0.0125417,0.00576117,-0.00144786,-0.00435466,0.00204098
-0.000941127,0.0114688,0.00471257,0.00238997,-0.00736302,0.00725555
-0.00306735,0.00826742,0.00579429,0.00604498,6.8903e-05,0.00300992
0.0107546,-0.0131117,0.00277781,0.00574064,0.000964046,0.000923753
0.00423632,-0.0462531,-0.0151944,0.00106704,0.000851452,0.00402522
-0.00741429,-0.007774,-0.00694077,0.00324297,-0.00228083,0.00412726
0.0469935,0.0338569,0.000474229,0.00732309,0.0254135,0.00607049
0.0225,0.0360161,0.0025038,0.00890923,0.00122774,0.000796795
0.0086193,0.00397706,0.00052249,0.00490403,0.00790322,-0.0027737
-0.00635022,-0.0109801,-0.00691448,0.000994682,0.0042136,-3.96371e-05
0.0127972,-0.0110029,-0.0121868,-0.000674665,0.00361598,0.00559986
0.00113444,-0.00990924,-0.00262132,-0.000419617,-0.00480759,0.00992715
0.00222826,0.00825454,0.000471014,0.000542343,-0.00580668,0.00375825
-0.0244748,0.00611869,-0.0102979,0.00460804,0.00238454,0.000647902
-0.0148537,-0.00776348,-0.00376193,0.00395018,0.00239944,0.00124234
-0.0138457,-0.00778093,-0.0133744,0.00248063,4.52995e-06,0.00256592
0.00111757,0.00717348,-0.00700395,-0.000270128,-0.00152016,0.00525904
0.00538276,0.000763692,-0.00587948,0.00272256,-0.00178725,0.00287688
-0.00852284,-0.00458234,-0.0144433,0.00783855,-0.00246578,0.000132263
-0.00201996,-0.00241887,0.00373023,0.0023725,-0.002635,0.00108719
-0.00735117,-0.00989317,0.00376072,0.00240225,0.00520676,-0.00338489
-0.0180977,-0.0131151,-0.0112185,-0.0034008,0.00122771,-0.00159514
0.00427104,-0.0152704,-0.0121887,-0.00302458,0.00727206,0.00386739
-0.010678,-0.0141995,-0.0175955,0.020986,-0.000108451,0.00259507
-0.0394286,-0.0408741,-0.0121867,-0.00332046,-0.0225823,-0.0101308
0.0167003,0.00842414,0.104165,-0.00684273,-0.0274946,-0.0100989
0.0248589,0.0662968,0.216008,-0.00482756,0.0141931,0.0278926
0.0975596,-0.0162362,0.0864633,-0.0181858,0.06032,0.0148813
0.184107,-0.0453791,-0.0487179,-0.0281242,0.0547138,-0.00402808
0.0351236,-0.222818,-0.179544,0.0152882,0.0207849,-0.0225087
0.0923724,-0.128647,-0.058136,0.00654727,-0.0201995,-0.021939
0.179446,-0.080426,0.0658157,-0.00630605,-0.000417382,0.007541
0.278598,-0.00251737,0.0688889,-0.0018841,0.0392205,0.0080772
0.431834,0.0443035,0.0317621,-0.00807405,0.00306895,0.00478518
0.246888,0.115822,-0.0773068,0.00511229,0.0172617,-0.0211816
0.233752,0.262051,-0.148822,-0.0148629,-0.00383288,-0.00990832
-0.0166238,0.283606,-0.147761,0.00453609,-0.0275422,0.0301607
0.0316465,0.0572408,-0.0734601,-0.00379449,-0.0332342,0.0751931
0.236957,0.158763,0.039907,0.006612,-0.00859183,0.0287123
0.210307,0.0850851,0.0445585,0.00930858,0.0257391,-0.0122657
0.0650088,0.0412918,-0.0166037,0.0099951,0.019711,-0.0173689
0.114704,-0.0902276,-0.0689856,0.0197488,-0.0339362,0.0266489
0.013197,-0.115866,-0.114076,0.013112,-0.0327945,0.0397971
-0.0170812,-0.0344909,-0.017487,0.0106875,-0.0638077,0.0441555
-0.0494065,-0.027851,0.0998764,0.0174084,-0.0380391,0.0199429
-0.146051,-0.0415701,0.154095,0.00459343,-0.0199791,0.00902849
-0.188797,0.0662967,0.12332,-0.00220871,-0.00667185,0.00405997
-0.15312,0.114171,0.0269823,-0.00195128,0.0358917,-0.000268817
-0.0863593,0.120421,-0.0347771,-0.0017094,0.0939327,-0.0101113
-0.215371,0.147195,-0.0514623,-0.0116897,-0.0751791,0.0699475
-0.190592,-0.0257657,0.00958445,0.018904,-0.0427399,-0.0194196
-0.144258,-0.104685,0.103226,-0.00666618,0.00747263,-0.0468869
-0.222557,-0.189151,0.0244146,0.0094161,0.0163544,-0.000867486
-0.333618,-0.117581,-0.0234784,-0.0223391,0.00700605,0.0232943
-0.232979,-0.118586,0.0570414,-0.0215285,0.0060181,0.0396748
-0.246723,-0.159129,0.0786212,0.0180243,-0.00469238,-0.0460809
-0.284182,0.0558379,0.209575,-0.013945,-0.0563742,0.0010435
-0.156633,0.14323,0.149651,-0.00297666,0.0292287,-0.00931793
-0.434272,-0.114135,0.0712157,-0.0234799,0.0654128,-0.0416746
0.00302058,0.0241945,-0.0466407,-0.0172258,0.0945683,-0.032662
0.154848,0.0228533,-0.136881,-0.0129656,0.0594668,-0.0169364
0.259897,0.0546889,-0.212557,0.000439346,0.0213917,0.00169319
0.259168,0.0878962,-0.159351,0.00378084,-0.0129706,-0.00126028
0.33253,0.12442,-0.0107999,0.0010792,-0.00932401,-0.0203343
0.34869,0.0689217,0.0238111,0.00780308,-0.00474477,-0.0183567
0.297182,-0.0059089,-0.0303869,-0.00010401,0.00045073,0.00278938
0.192469,-0.0881545,-0.0719146,-0.00115913,-0.0229967,0.0366841
-0.681201,0.0319622,-0.787552,0.0105302,0.0069724,0.0119258
-0.641546,-0.0351539,-1.27739,-0.0203032,0.238231,0.0655984
0.141495,0.0959036,-1.12893,0.0344028,0.0106083,0.0333418
-0.504741,0.551664,-1.61617,0.128877,-0.0457469,0.0794152
-0.268407,0.773708,-2.20544,0.148588,0.0850835,0.0654529
-0.0551648,0.947368,-2.37565,0.0921921,0.068003,-0.00232267
-0.962248,0.921877,-2.07331,0.0680647,-0.118945,-0.0161124
-0.575461,0.966935,-1.18534,0.105571,-0.189496,-0.0668178
-0.267049,0.566818,-0.178318,0.0870392,-0.241202,-0.0943449
0.218819,0.51505,0.3602,0.0176683,-0.183395,0.0873592
-0.416315,0.398019,0.355375,-0.0743045,-0.0466843,0.086094
-0.115503,0.135598,0.0793375,-0.039058,0.0081749,-0.016323
-0.0774853,0.155763,0.0205845,0.00532746,0.045759,0.0186948
0.198887,0.0250596,-0.0779662,0.0265628,0.050934,0.00577164
0.728379,-0.207124,-0.0680681,0.0425077,0.00795484,-0.00741696
0.889382,-0.168764,-0.0527549,-0.00843047,-0.0258168,-0.00143647
0.525238,0.0818197,0.146194,0.0101732,-0.0297253,-0.0296932
0.310824,0.122496,0.101319,0.0466047,0.0288239,-0.0335104
0.154348,0.0265357,0.135546,0.0988389,-0.0614977,-0.0146621
-0.159648,-0.197419,0.210614,0.00217465,0.014562,-0.049517
-0.0457605,-0.0461917,-0.0014913,-0.0586313,-2.95639e-05,-0.0282083
0.0645177,0.0432848,-0.0988894,0.013309,0.0165058,-0.0414237
-0.0646347,-0.0453309,-0.128715,0.0591194,-0.0286541,-0.0264504
-0.200618,-0.156187,-0.0515763,0.0785286,-0.0372171,-0.0312655
-0.542393,-0.26159,0.000181053,-0.0251065,-0.0203407,-0.0493488
-0.169692,0.115835,-0.249818,-0.0972441,0.0615623,-0.0912824
-0.182361,0.645627,-0.277878,-0.0903894,0.0398592,0.0246267
-0.0803741,0.865788,-0.169939,0.028345,-0.0138307,0.00346255
-0.260531,0.838443,-0.00375984,0.0499299,-0.0726374,0.0536538
-0.356576,0.7921,0.331676,-0.0185127,-0.0386058,0.0185065
-0.363352,0.829687,0.442525,-0.0677128,-0.0501953,0.0374393
-0.124897,1.03451,0.387599,-0.100167,0.00406629,0.0796778
0.0176512,0.932244,0.0020169,-0.0250623,0.0329624,0.079409
-0.0443353,0.537819,-0.171953,0.0407412,0.00394237,-0.00696623
0.0182552,0.343308,-0.200373,0.0575041,0.0121222,0.00848365
0.0494192,0.11587,-0.135743,0.0899596,-0.000658274,0.00759041
0.00193284,-0.285853,-0.200629,0.0841591,-0.034543,-0.0117661
0.0193311,-0.632121,-0.289136,0.0507998,0.0101095,0.0175654
-0.0382635,-0.795504,-0.284018,0.00836189,0.0130637,0.00402629
0.0515835,-0.762361,-0.229407,-0.0353442,-0.0189642,0.0154244
-0.0379155,-0.677606,-0.0582712,-0.123654,-0.0310487,0.0488921
0.0699519,-0.21729,-0.0576462,-0.122802,-0.00625408,0.0649123
0.236746,0.0316048,0.0161567,-0.0483657,0.0225757,0.0190767
0.587595,0.046379,0.0643856,-0.0766234,-0.030404,0.0825119
0.540015,-0.107587,-0.0384332,-0.0463917,0.00285649,-0.0147482
0.25023,-0.219502,-0.0227661,-0.0358916,-0.00739145,0.0203412
0.286505,-0.0870782,-0.0266949,-0.0439423,-0.0265979,0.0714482
0.136746,-0.0836209,0.0528551,-0.023124,-0.0654215,0.0303737
0.171755,-0.10047,0.206953,0.0275625,-0.00970846,0.0137051
0.239271,-0.232844,0.283926,0.113398,0.0210556,-0.0653145
0.161024,-0.293486,0.389799,0.0683669,-0.00106615,-0.0450637
0.0911762,-0.34594,0.295855,0.00485137,-0.0311569,-0.0328869
0.046959,-0.307613,0.203555,0.0114134,0.0189943,-0.0302429
0.0662198,-0.307915,0.0390878,0.0332422,0.00634527,-0.0346749
0.0851102,-0.311219,-0.00889945,0.00768201,-0.017983,-0.0435845
0.0132679,-0.319841,-0.0839039,0.0224843,-0.0131148,-0.0185791
-0.113618,-0.239668,-0.10627,-0.00300804,-0.0249641,-0.0373002
-0.120297,-0.00584681,-0.175121,-0.062506,-0.00317359,-0.00898242
-0.057099,0.291874,-0.324261,-0.0499849,0.0333561,-0.0321292
-0.0246705,0.389933,-0.433758,-0.0204027,-0.0438817,0.0166104
-0.0701801,0.440567,-0.208813,0.0380097,0.0116864,0.00600338
-0.0698067,0.343484,-0.137664,0.0200717,-0.0459094,-0.00534689
-0.137346,0.361883,-0.0301239,-0.0137835,-0.0137512,0.0243063
-0.0233225,0.398113,-0.0309992,0.0109288,0.0280392,-0.00499988
-0.166086,0.279674,-0.0179457,0.0446871,-0.018055,0.0180836
-0.166491,0.0445875,-0.0645031,0.0437675,-0.00597799,0.0173985
-0.11674,-0.178765,-0.0991979,0.0452097,-0.00534493,0.00667202
0.0176424,-0.248253,-0.0715311,0.0110089,-0.0239773,0.00458658
-0.0982954,-0.144506,-0.0469951,-0.0355624,0.00519168,0.0405865
-0.0786013,-0.0866966,0.0339068,0.017964,-0.00516164,-0.00785542
0.00836686,-0.13067,-0.02959,-0.0543864,-0.0552272,-0.0141356
0.0276504,-0.200387,-0.183992,-0.0318119,-0.05453,0.0438056
-0.0321822,-0.30933,-0.201673,-0.00613251,-0.0362855,0.0477219
-0.0292074,-0.373168,-0.0548695,-0.0312956,0.0557941,-0.0183167
0.454497,-0.185569,-0.0777826,0.00842673,0.0781659,-0.0735623
0.227437,-0.235628,-0.0911262,-0.014687,-0.0433625,0.0377349
0.0124559,-0.106158,-0.0607189,-0.0599054,-0.0840545,0.0390773
-0.0669884,0.167768,0.171198,-0.0371531,0.0132902,0.00611269
-0.0413741,0.379233,0.159238,-0.037589,0.000547945,-0.0034703
-0.0621497,0.379093,0.0704801,-0.0086078,-0.0072208,0.0162159
-0.0967478,0.30955,-0.00719476,0.00869443,0.0123265,0.00587451
-0.0457165,0.2219,-0.01819,0.0334005,-0.0141339,-0.0077908
-0.0956663,0.0852657,0.0156323,0.0386515,0.00650418,0.0068512
-0.0905325,-0.00878241,-0.00831247,0.0140746,-0.00522989,0.00711322
-0.0384137,-0.0654539,-0.0184356,0.0176658,0.0179198,-0.0130039
0.0212212,-0.122114,-0.0189149,0.0179314,-0.00876176,0.0109016
1.07637,-0.0608803,0.0252427,-0.00473933,0.0178098,-0.0135472
0.802407,0.13047,-0.0133537,-0.0168408,-0.0422336,0.0518041
0.272095,-0.0174961,0.0518644,-0.00433905,-0.0111338,-0.0103745
0.108956,0.0253138,0.0285406,-0.0165407,-0.0107933,0.0268549
-0.0392816,0.0745171,0.0020235,-0.00542447,-0.0191646,0.00292116
-0.232196,0.0191085,-0.0026139,0.00142553,-2.13385e-05,0.00243992
-0.233246,0.0255227,-0.000523753,-0.00459754,0.00453264,-0.011718
-0.386807,-0.0192568,-0.0179021,0.000386104,-0.0021621,-0.000919342
-0.258678,-0.0652003,0.0309538,0.0124965,-0.0182995,0.0182296
-0.115922,-0.0268668,0.0237636,0.00929423,-0.00720763,1.72257e-05
-0.0617186,-0.0216066,0.000424542,-0.00513336,0.00303912,-0.00261974
-0.0393275,-0.0301636,0.00376978,0.00134546,-0.00305378,0.0025965
-0.0788513,-0.0493869,-0.0112135,-0.00968423,0.00668997,0.00313663
-0.00850697,-0.0109853,-0.0111976,-0.0173546,0.00404853,0.00234902
-0.00857679,0.00287909,-0.0241098,0.00209518,-0.00724071,0.00642085
-0.0330478,-0.0269969,-0.0154605,0.00218236,-0.00480884,0.00750107
-0.00619287,-0.0408375,0.0221243,-0.000446945,-0.00401193,0.0137936
-0.241763,-0.0502998,0.00741551,-0.0204372,-0.0187926,0.0110104
-0.554159,-0.109933,-0.0211473,-0.00493164,0.0815385,-0.0130075
-0.047748,-0.0269221,0.0208109,0.0111829,0.0278772,-0.00535309
0.00652699,-0.00775776,0.00806846,-0.00405622,-0.00659531,0.0112885
0.0523124,-0.0345029,0.00520872,0.00366212,-0.0158379,-0.000606418
0.0403716,-0.0655316,-0.0288247,-0.00139835,-0.00549591,-0.00146353
0.0499549,-0.0655403,-0.029858,0.00932586,-0.00388658,0.00468433
0.0629943,-0.0451833,0.0106597,0.00198108,-0.00950086,-0.0424899
0.0513193,-0.0173925,0.0157788,-0.00729339,-0.0209279,0.0394084
-0.160679,-0.0214926,0.0224894,-0.0127755,-0.00533456,0.00517941
0.0552719,0.0284401,-0.0400638,-0.0169737,0.0236973,-0.000976324
0.0266804,0.0135612,-0.00908968,0.00424945,-0.0150447,0.00267863
0.0856252,0.0168195,0.0477401,0.00708133,-0.00533426,0.00103199
0.0875739,0.0103577,0.0178703,-0.00920668,0.000642776,0.00641263
4.00315e-05,0.00930849,-0.00916204,-0.00698809,-0.0110744,-0.000210047
-0.0488369,0.0157934,0.0130506,-0.000343949,0.00317752,0.00616992
-0.0597623,-0.000298155,-0.0306919,-0.00206196,-0.00963438,0.00898123
0.00232684,-0.0120097,0.0187669,0.0129703,-0.0329933,-0.00535488
0.0500636,-0.00142609,-0.0174523,-0.00544409,-0.024444,0.0183421
0.0606764,0.00282471,-0.0249173,-0.00544794,-0.0119528,0.00496769
0.132182,0.0166899,-0.006577,0.00649782,0.00486082,0.00327241
-0.084135,-0.038691,-0.00488934,0.00252758,-0.0175364,0.00108683
-0.0162561,-0.042037,-0.0569697,-0.0203207,0.0164964,0.0193586
0.0604164,-0.00579474,-0.0676018,0.0144963,0.010006,-0.0168738
0.173035,-0.0900394,0.0637188,0.0114732,0.0233197,-0.00796914
0.384907,0.0208296,0.0263951,-0.0119211,-0.00370616,-0.0419829
0.234216,0.138606,0.118023,-0.0485055,-0.0839181,0.0293485
0.728838,0.409135,0.487805,-0.00122574,0.11361,0.118979
0.575502,0.463126,0.14284,-0.0209963,0.0154941,-0.130437
0.114549,-0.278692,0.278412,-0.0271542,-0.180983,0.0546286
-0.928687,-1.04065,0.863887,0.0445663,-0.264356,0.134116
-0.135512,-1.35098,1.49925,0.12394,-0.0300607,0.0873183
-1.30474,-1.45803,2.69437,0.209026,-0.342166,-0.134503
2.15599,-0.521943,4.38513,0.294628,-0.0402074,0.00566828
0.269161,0.348921,4.33823,0.387191,1.7941e-05,0.149551
-2.66847,-0.477886,2.44785,0.295519,0.442823,0.180568
-0.581742,-0.196521,0.541315,-0.025984,0.543698,0.120666
-1.08462,-0.159861,-0.702343,-0.106356,0.311364,0.0863084
-0.656266,0.0920123,-1.25583,0.0390307,0.235874,0.0193276
1.79509,0.415489,-1.52548,0.157347,0.0320431,-0.126018
1.39268,-0.16267,-1.23689,0.0915734,-0.304343,-0.039511
-0.286436,-0.311157,-0.134231,-0.0405133,-0.331449,-0.0151124
-0.0388102,-0.0733111,0.984884,-0.0470423,-0.218621,0.0297734
-0.283657,0.0130037,1.37019,0.0573795,-0.031028,0.0713593
-0.238237,0.119034,0.938018,0.00958037,0.0884199,0.0286289
-0.226021,0.121438,0.486095,-0.0224714,0.183076,-0.0486725
0.155097,0.0368107,-0.0963698,-0.00955963,0.184347,-0.100582
0.284542,-0.0997114,-0.531995,-0.027889,0.108736,-0.0662364
0.233464,-0.145445,-1.05116,-0.0112036,0.086939,-0.00383061
0.743676,0.010188,-1.62722,-0.00168228,0.149158,0.0206712
0.99845,0.292437,-1.98923,0.0281079,0.119458,0.053154
0.773209,0.516461,-2.25757,0.109595,0.0197455,0.0275687
0.735526,0.614012,-2.68786,0.23035,0.113623,0.140325
1.48802,0.874562,-3.0265,0.0834169,0.119064,0.171838
2.75058,1.49932,-2.55998,0.0669579,-0.103724,0.192418
3.11055,0.853328,-1.63878,0.183376,-0.170562,0.111881
1.63191,0.246995,-0.824093,0.212528,-0.213406,0.213843
-0.26901,-0.303137,-0.428043,0.126322,0.119541,-0.0112954
-0.284922,-0.100935,-0.256323,0.00489163,-0.0984822,0.0310208
-0.876103,-0.140443,-1.11411,-0.152536,0.203774,-0.0528139
0.271639,-0.287264,-0.890897,0.125197,-0.147893,0.0110147
0.406981,0.00959913,0.333196,0.143934,0.0698948,0.0358615
-1.65645,-0.0747283,1.30792,0.154103,-0.453142,0.368947
-0.538114,0.727195,2.23005,-0.0498069,-0.146888,0.0832856
-0.470155,1.13644,2.33236,-0.324809,0.206639,-0.165402
0.689667,1.86119,1.29026,-0.124997,0.113194,-0.0582121
0.292798,1.26903,0.9037,0.153946,0.0745251,-0.110103
-2.24564,-0.437137,0.278079,0.607048,-0.410544,0.366682
-7.15501,-1.57119,0.817303,0.418955,-0.121984,0.16497
-8.49834,-2.62336,0.24534,0.0885283,0.173027,0.028066
-0.222607,-0.827853,0.0734301,0.095855,-0.067454,-0.0334575
0.146942,0.395475,-0.245105,0.181943,-0.225364,0.197572
1.44653,0.629231,0.213404,0.175628,-0.168937,0.126181
-0.937333,0.249827,0.905704,0.0869486,0.050074,0.193832
0.632683,0.203936,0.997355,-0.0747355,0.279175,-0.0177518
-0.547748,-0.442226,0.546241,-0.0358425,0.336064,-0.263448
0.811666,-0.161209,-0.0424122,-0.11316,0.241283,-0.0451232
1.37982,0.341167,-0.225178,-0.106655,0.0756417,0.0145214
1.5277,-0.121784,-0.400055,0.0361992,0.376737,0.141089
0.504277,-0.394584,-0.465157,0.0386242,-0.103559,-0.00481093
-2.2532,0.46257,-0.176529,-0.133184,-0.217648,0.290569
-3.92121,0.0502229,0.312455,-0.181506,-0.40975,-0.060963
-0.310077,0.141207,0.148022,-0.171621,0.228502,0.202598
-0.474236,-0.272332,-0.00483748,0.0272921,0.094183,-0.119161
1.07519,0.49371,0.133828,0.0746969,0.122353,-0.0124406
1.15011,0.663572,0.175745,0.093631,-0.10008,0.0302019
0.79163,0.450854,-0.062484,0.0219423,-0.0238951,0.0291244
0.349284,0.135002,-0.0610239,0.0428132,-0.0731937,-0.0190042
-0.00404368,-0.132685,0.0334127,0.0653219,-0.0612101,-0.0455679
0.179284,-0.164537,0.224491,0.0114211,-0.0580066,0.00729406
0.428133,-0.179506,0.323816,-0.047219,0.0518344,0.0382643
0.0881747,-0.367997,0.508607,-0.0838768,0.17587,0.0235387
0.547298,0.0565237,-0.260641,0.225523,0.00609636,-0.105596
0.485415,0.226365,-0.289755,-0.0227433,-0.0948445,0.0301597
0.126858,-0.0754671,-0.175884,-0.00634629,-0.0427132,0.0340469
-0.547217,-0.261751,-0.0938597,-0.0561745,0.0768761,-0.00557846
-0.346004,-0.135611,0.0449734,-0.0144466,-0.0130075,-0.0403568
-0.339133,-0.0105165,0.113638,0.00664151,-0.00770468,0.0270361
0.19903,0.155715,0.112437,0.0633212,0.00567603,0.0692383
0.348714,0.142623,0.0211961,0.00918305,-0.0282812,0.0482985
0.000719712,0.077861,0.0983098,-0.0213499,-0.0170252,-0.018796
-0.0160098,0.0768992,0.151675,-0.000678897,0.0113521,0.011891
-0.0135756,0.120775,0.198412,-0.0117385,-0.0169595,-0.00700176
0.06506,0.153763,0.160028,-0.00645173,0.0108124,0.0150266
0.404487,0.222793,0.0753736,0.0010587,0.00905246,0.019909
0.108156,0.186667,0.0584735,-0.0316661,0.01851,-0.0215901
0.06669,0.225174,0.0698224,-0.00465399,-0.00937867,-0.00442064
0.262708,0.29871,0.0572581,0.00817227,-0.00291258,0.0288004
0.0748259,0.253891,0.00235423,-0.00768352,-0.0068686,-0.0313046
-0.0831033,0.124709,-0.025179,0.00851303,0.0321069,-0.0717313
0.11316,-0.12561,-0.145694,0.0365067,-0.00297332,0.0461259
0.0199211,-0.153466,-0.233474,-0.0666147,0.010411,0.0110967
-0.0794265,-0.0495551,-0.107374,0.0166775,-0.0418305,-0.0183859
-0.211756,-0.0356311,-0.143218,0.00167215,-0.0450043,0.0392874
-0.126894,-0.0293971,-0.207049,-0.00422794,-0.0186144,0.0382568
-0.116423,0.0239431,-0.242615,0.0396605,0.016645,0.0325251
0.0715193,-0.0273442,-0.168924,-0.0286992,-0.0091238,-0.0120935
-0.0760543,-0.043097,-0.0785572,0.0048238,0.0155755,0.0207554
-0.0908214,0.027448,-0.0598368,-0.0229148,-0.0110406,-0.0110941
0.0825083,0.0873368,0.0547482,-0.0275323,0.0516369,-0.0443741
-0.200217,0.10698,0.170023,0.033957,0.0469596,0.0302695
-0.0954834,-0.124015,0.0650668,0.0339475,-0.0830784,0.0485127
-0.37959,-0.32479,-0.0308557,-0.031947,0.00482965,-0.0192417
-0.404628,-0.277622,0.0542222,0.0115048,0.00531983,0.0222847
-0.141131,-0.14102,0.094924,0.000216842,-0.00992393,0.0222466
-0.228122,-0.229802,-0.0116714,0.0185701,0.00885558,0.0575107
-0.0652983,-0.187261,-0.0487341,-0.0160896,0.00800836,-0.0108272
-0.0111787,0.0169412,0.0740831,-0.00716043,-0.011391,0.0200262
0.191749,0.177133,0.140051,-0.0224407,0.00427276,-0.0417751
0.106639,0.186848,0.161038,-0.0117216,0.00951892,0.0374504
0.0487911,0.118446,0.115322,0.0166402,0.00164181,-0.0010016
-0.00815721,0.0628124,0.040677,0.00285393,0.00912088,0.0013479
0.026009,0.0478547,0.0537228,-0.0145587,0.00760651,-0.037992
0.0417018,0.0552336,0.00458666,0.00126386,0.0154211,-0.0169423
0.000724714,-0.0751783,-0.0652396,0.0143918,-0.00289053,0.0235286
-0.0218596,-0.146781,-0.0937073,0.00417209,-0.00641894,-0.00594735
-0.0207589,-0.15318,-0.0872507,0.00261664,0.0054636,0.0143
-0.000480866,-0.138233,-0.0829985,-0.00536358,-0.00837475,0.010187
-0.00439037,-0.0719085,-0.0300206,-0.0127069,-0.00703245,0.0137335
-0.0222711,-0.0141526,0.00372783,-0.00257468,-0.00798231,0.0153601
-0.0146489,0.0318151,0.0269644,-0.00198495,0.00758231,-0.00160742
-0.0113004,0.0671018,0.0491864,0.00370318,-0.0105485,-0.00438428
0.047843,0.011366,-0.0335707,-0.0288522,0.0377744,0.0210664
0.119492,0.0562456,0.00593915,-0.0202707,0.0343691,0.000472069
0.154989,0.0990388,0.0581476,0.00662643,-0.0350805,0.00188732
0.0493095,0.0723606,0.0280089,0.0127978,-0.0162427,0.0223475
0.0278453,0.0338834,0.00573854,-0.00333303,0.00251168,0.000468493
0.00868411,0.0189494,0.0100398,0.00908643,-0.00383139,0.0052141
-0.00093223,0.00399597,0.00689616,-0.000154734,-0.00106382,-0.0044899
-0.0171118,-0.0441107,-0.0217016,0.000962019,-0.00445896,0.00384307
-0.0277211,-0.0547708,-0.0131223,0.000768363,-0.0059731,0.00197303
-0.0137336,-0.0259033,0.00704086,0.00353587,-0.000272214,0.0136359
-0.0211246,-0.00558551,0.016498,-0.00630122,-0.00181502,0.00426197
-0.0201262,-0.0120143,0.00585946,-0.00886071,0.0137739,0.0110815
-0.00728622,-0.00666693,0.0144181,-0.000838816,0.000165939,0.00596988
-0.00947255,-0.0152265,0.00591933,-0.00457495,0.00701559,0.0104173
0.000158234,-0.00988149,0.0123313,0.00150645,-0.0136226,-0.00608504
-0.0125978,-0.0130672,0.0176465,-0.00149906,0.00227666,0.00742924
0.0076083,-0.0013446,0.0101655,-0.00910997,0.00418156,0.00913858
0.00655775,-0.00988411,0.0134231,-7.50422e-05,0.0011282,0.0117214
-0.012716,-0.00669329,-0.00269611,-0.00243926,0.00461477,-0.000769019
0.00432718,-0.00457186,-0.00371384,-0.00108588,-0.00177222,0.00317907
-0.0117682,-0.0248852,-0.020738,-0.000468969,-0.00863421,0.0110314
0.0139362,0.00824283,-0.00162368,-0.00080657,0.00215119,0.0038389
0.0139887,0.0242799,0.00574921,-0.00500035,-0.00425273,0.0122206
-0.0137576,0.00292698,0.000442671,0.00169092,-0.00392258,0.0121989
0.00764934,0.0168239,0.0153904,-0.000380754,-0.00159621,-0.00249696
0.00548851,0.00827216,0.0111647,-0.00590265,0.0111256,0.00923312
0.00434684,0.00931865,-0.0016675,0.000707924,-0.00118923,0.00660825
0.00117689,0.0114648,0.00258069,-0.00335395,-0.00478816,0.00320804
-0.00521265,0.00613098,0.00365876,-0.00145847,0.00229889,0.00412524
0.0054608,0.00399198,0.00691841,-0.000766337,0.000757337,0.00772965
0.0150612,0.0125323,0.00796724,-0.00613922,0.00338596,0.0010184
-0.00420576,-0.00883918,-0.00478856,0.00432205,-0.00606704,0.0041194
-0.00417805,-0.00455903,-0.000542224,-0.00316894,0.00126755,0.00168741
-0.027731,-0.00991456,-0.0187584,0.00021559,-0.00617206,0.00730669
0.00110026,-0.00137438,-0.00908852,0.00127572,0.00512707,0.00324917
-0.0169871,-0.0120334,-0.00374498,0.00159532,-0.0041818,0.00562811
0.00112521,0.0231982,-0.0071118,-0.00291181,0.00530136,0.000687122
0.0427763,0.0477597,0.006775,-0.00159603,-0.00193071,0.00884724
0.0933041,0.100187,0.0771409,-0.0077033,0.00226486,0.00655055
0.0462736,0.10018,0.0523897,0.0106531,-0.0124489,0.0153567
0.0163765,0.116204,0.0404217,-0.0120758,0.00437927,0.0052712
0.16886,0.0624088,-0.113583,0.0489327,0.0319896,0.038407
-0.679569,0.0168633,-0.869721,0.190481,0.162912,0.231252
0.489679,-0.69144,-1.63217,0.0208488,0.206046,-0.778101
2.29653,-1.05739,-1.81963,-0.0498179,0.586015,0.0808705
0.993509,-1.26216,-4.63533,0.15845,0.542153,0.23335
-1.09412,0.670304,-6.10663,0.339704,0.35108,0.329279
-0.676306,1.82801,-4.22783,0.498075,-0.255836,0.212804
-1.09281,1.40381,-2.03419,0.384043,-0.131145,0.106121
-0.764868,0.80085,-0.949913,0.253474,-0.00350887,-0.0209976
0.778092,0.141358,-0.516755,0.156508,0.00220311,-0.00733912
-0.951291,0.124802,-0.347898,0.0337507,0.0568052,0.00444788
-1.39266,-0.0661162,-0.372888,0.1055,0.0489188,0.0174778
-0.755432,-0.266749,0.0111659,0.00802827,-0.10264,0.0249175
-0.728338,-0.195389,-0.097108,-0.0232104,0.069949,0.0629077
-0.431317,-0.418598,0.0582412,0.114434,-0.190132,0.112795
-0.11438,-0.143454,-0.064161,-0.0891024,0.0183988,-0.0555152
-0.626432,0.130485,-0.0122947,-0.103514,-0.0155751,0.0291193
-0.370678,0.0515776,0.17829,0.0647656,0.0464001,-0.0340575
0.476128,-0.0768621,-0.211964,0.117318,0.0165722,-0.129141
0.229219,0.0614971,0.00204158,0.0449218,0.036759,0.0135801
-0.295919,-0.164483,0.0485501,0.019548,0.0159355,-0.0562366
0.0811794,-0.254065,-0.314866,-0.0331305,-0.0165122,0.0147035
0.190153,-0.121626,-0.27792,-0.0479065,0.00326484,-0.00244933
-0.00429436,0.117475,0.147181,0.00270098,-0.055192,0.0286064
-0.0942534,0.154791,0.067536,-0.0143111,-0.0818658,0.00058347
0.213043,0.0208669,-0.0266026,-0.0272167,0.0961136,0.09444
0.368482,0.0698431,-0.0519823,-0.0399903,-0.0103774,-0.00152898
0.436397,-0.00291555,-0.0918584,0.0393595,0.0338964,0.022239
1.41327,0.0393208,0.0493552,0.0676124,-0.000246346,0.0476338
1.17423,0.0931074,0.161368,-0.0438492,0.0202384,-0.0738238
2.09471,0.0517922,0.14585,0.000149906,0.103982,0.00534773
1.03274,-0.194334,0.0462405,0.0246282,0.010976,-0.0616935
-0.163141,-0.261895,-0.0112231,-0.00721258,0.0223693,-0.0162137
-1.14378,-0.19718,-0.0794205,-0.0422721,0.0516264,0.148803
-0.0975327,0.222812,-0.130579,-0.0333564,-0.0701723,0.113395
-0.068925,0.343743,0.00977985,0.0162221,-0.0863439,-0.0304877
-0.00379561,0.0446822,0.0589731,-0.000865102,-0.0657986,-0.0146323
-0.210968,-0.0695764,-0.00837509,0.0394557,-0.017776,-0.0512302
-0.478903,-0.173118,-0.081361,-0.0101037,0.0177505,-0.0213319
-2.11447,-0.356656,-0.0670602,0.0194955,-0.118728,0.0637295
-1.14474,-0.201111,0.116129,0.00386328,0.0875176,-0.113523
-1.89923,0.0130358,0.0787935,0.0495459,-0.0722319,0.00540781
-0.963533,1.04611e-05,-0.245633,0.0257356,0.0605002,-0.0207426
-0.790121,-0.0329963,-0.109076,-0.098053,0.0300446,0.103226
-0.326958,-0.108963,0.0202961,0.0234799,-0.00458604,-0.106734
0.276322,-0.149189,-0.120357,0.0310684,-0.0205468,-0.0126737
0.214002,-0.141505,-0.0298228,-0.00535232,-0.0161682,-0.0375612
0.384974,-0.152172,0.053158,-0.0115141,-0.000337541,0.01361
0.708063,-0.360926,-0.0660809,0.0244538,0.0131177,-0.0632021
0.650034,-0.449361,0.037914,-0.0355135,-0.0400405,-0.0059247
0.651338,-0.407638,0.0739748,-0.057737,-0.0895812,-0.00912285
0.461037,-0.290954,0.134475,-0.00554287,-0.0580249,0.0102986
0.135707,-0.341765,0.258595,-0.0942312,-0.0310935,0.0259873
0.384251,-0.366436,0.307767,0.0270433,-0.0479926,-0.0769368
0.00151209,-0.549914,0.287223,0.0683016,-0.079073,-0.0117588
0.130673,-0.495473,0.321545,0.0164436,0.0641015,-0.00965321
0.278644,-0.476399,0.297399,0.0240937,-0.0154805,-0.0223268
0.854723,-0.764243,0.262959,0.124973,0.0917379,-0.0891056
2.31649,-1.54945,0.849417,0.393922,-0.0675056,-0.0862103
1.12733,-2.94156,2.03463,0.551972,-0.244243,-0.027227
2.07488,-3.613,3.92941,0.488308,-0.16134,0.261616
0.0732974,-3.01319,5.20657,0.434838,-0.0552761,0.370751
1.08542,-1.1034,5.55057,0.404028,0.365278,0.260837
0.944514,0.265364,4.49409,0.492952,0.635649,-0.0176235
-2.21722,-0.284486,1.45249,0.093964,0.622818,-0.0775219
-1.31268,-0.0261938,-0.721162,-0.139532,0.467904,0.0150936
-0.66522,-0.241646,-1.47594,-0.0810367,0.239466,-0.0403959
0.153078,-0.175738,-1.30555,-0.0326357,0.0401194,-0.155708
1.15838,0.186968,-0.536997,-0.0395387,-0.134108,-0.201032
-0.123484,0.382169,-0.0302064,-0.0727887,-0.118725,-0.104911
0.305272,0.703004,0.367849,0.0235256,-0.0139782,-0.0991014
0.31031,0.331994,0.174748,0.0231942,0.0129546,-0.0140327
-1.12157,-0.248066,-0.458305,0.185693,0.00570139,0.0491206
-0.212757,-0.243611,-1.18254,0.0360281,-0.0977317,0.0899463
-1.57909,-0.92667,-0.823164,0.0969716,-0.281604,0.174872
-2.08244,-0.944394,-0.181729,0.121928,-0.33376,0.211442
-1.42496,-0.557443,0.862097,0.0901583,-0.219864,0.118645
-0.7961,-0.278296,1.94178,0.0503176,-0.0977193,0.0940425
-1.06897,-0.358978,2.11116,0.0682441,0.195942,0.122428
-0.936082,-0.255744,1.3385,0.041961,0.415991,0.143372
0.841177,0.215656,-1.37712,0.0604651,-0.0914078,0.0397494
0.361697,0.12083,-0.83446,0.0530427,-0.215522,0.0651031
0.338657,0.130755,-0.0557109,0.0540521,-0.237752,0.0639822
0.223562,0.134218,0.653285,0.0529979,-0.165523,0.0246174
0.163078,0.0182329,0.883526,0.0467451,-0.0684943,0.0206407
-0.732258,-0.184731,0.493644,0.0479544,-0.00074932,0.0683577
-0.409578,-0.0454228,0.274916,0.00152189,0.0903271,0.0389548
-0.361376,-0.0221994,0.137116,-0.0141045,0.06931,0.0191738
-0.228259,-0.0140884,-0.0536903,-0.010813,0.0862283,-0.00385302
-0.0703341,-0.0187255,-0.193033,0.00157404,0.0463636,-0.0141398
0.052084,-0.0241907,-0.211774,0.0149051,0.0149743,-0.0159817
-0.0106229,-0.0636156,-0.181835,-0.00615633,-0.0272866,0.00202793
0.0392399,-0.0153424,-0.0441326,0.000916123,-0.0279215,0.0221107
0.15624,0.0638554,0.0925535,0.00620914,-0.0223699,0.0181549
0.131758,0.0499968,0.0978933,-0.000764191,-0.00754201,0.00329179
0.0492141,0.0125322,0.0176925,-0.00228643,0.00204036,0.00104278
0.0866234,0.0136053,0.0370592,0.00440085,0.00558245,-0.00133276
0.0459303,-0.0216692,0.00615138,0.00280958,0.000997543,0.00472212
0.0427033,-0.0184711,0.00077547,-0.00317681,-0.00204104,0.0181937
0.0318074,-0.00144536,-0.0410439,-0.00533062,-0.00719684,0.0224056
0.00212693,0.0135749,-0.0166788,0.00529015,-0.0130618,0.0135719
-0.0275866,0.0008166,0.00466093,0.00430286,-0.0132782,0.00712919
-0.0521934,-0.00667021,-0.0114097,-0.00143558,-0.00200644,0.014841
-0.0532456,0.00721897,-0.0104352,0.00961047,-0.0033522,0.0145887
-0.00413108,0.0285723,0.00456831,-0.000178397,0.00312597,-0.0110822
-0.0865322,-0.0302122,-0.0498493,-0.00152463,-0.00680906,-0.00534195
-0.0458512,-0.0066905,-0.0199321,0.00684267,-0.0134447,0.0159492
0.0237517,0.0286038,0.034589,0.000390768,-0.0031029,0.00120598
-0.0266112,-0.000277693,-0.0102883,0.00478929,0.00803882,0.000834048
-0.002129,0.013581,-0.0156285,0.00725013,0.00143808,0.00279826
-0.00217792,-0.020611,-0.0207482,0.00488412,-0.00415021,-0.00948346
0.0450502,-0.0432853,-0.139024,0.0240502,0.0504951,0.0108397
0.0330906,-0.0190935,-0.359324,-0.000745535,0.0832208,0.00605088
0.201311,0.213396,-1.11453,0.0309142,0.181141,0.0419098
0.419858,0.36764,-1.99938,0.0895574,0.184332,0.0623548
0.873812,0.345639,-2.16742,0.105298,0.0183665,0.0257916
-0.197864,0.252528,-2.12169,0.0936106,-0.0827804,0.0408376
-1.04519,0.455891,-1.64644,-0.0222558,-0.24034,-0.0288404
1.04821,1.21319,-0.164782,-0.353631,-0.167518,0.0759089
1.41591,1.66,0.167054,-0.217945,0.0155445,0.0653426
0.0262311,1.39962,0.325943,-0.0728748,-0.139212,0.107898
-0.124271,0.88504,1.0403,0.0686144,-0.0797115,0.0627738
0.972013,0.455447,1.41474,0.133558,-0.0809327,-0.00695986
0.350309,0.235751,1.34866,0.158113,-0.0967691,-0.0719408
-0.588998,0.161346,0.543222,0.223665,0.11542,0.136441
0.396467,0.325487,0.150519,0.0550346,0.0478841,-0.0319182
-0.452522,0.168879,0.023349,0.0763519,-0.0368506,-0.0210922
0.176389,0.126827,0.0708504,0.0307503,-0.0302579,-0.0316702
-0.116782,-0.0203868,0.0578865,0.0130355,-0.0417402,-0.0154119
-0.0689246,-0.0364691,0.0442784,-0.00789809,-0.00115645,-0.0111117
0.0621389,0.00829112,0.0412738,-0.0169737,0.0334087,-0.00728595
-0.0542298,0.0168566,0.00231847,-0.0151681,0.0355703,0.0275927
0.0781531,0.0357454,-0.134069,-0.0158777,0.00973886,-0.0204498
-0.0427525,-0.00992322,-0.0359311,-0.00800109,-0.0119852,-0.00420082
0.0117069,0.00715781,-0.0176721,-0.00483918,-0.0152398,0.0175548
-0.0115818,0.0189676,0.00674015,-0.00707769,-0.000274301,-0.000168562
0.0236057,0.0050647,0.0123029,-0.00204778,0.00735593,0.00214183
0.0404933,0.0156853,-0.0154822,0.00293404,0.00819945,0.00447404
0.0149204,0.0157054,-0.0155802,-0.00416875,0.00163591,0.0109149
0.0106909,0.0296019,-0.0114107,0.000157952,-0.00659943,0.00877404
0.0234282,0.0210341,-0.0187875,-0.00561237,0.00507349,0.00484526
0.0276064,0.0316857,-0.033797,-0.00800669,0.00651807,-0.00199914
0.0204618,0.0211033,0.0196657,-0.000214577,0.00746703,0.00749874
0.0151709,0.00509745,0.0272288,-0.00285643,0.0052228,0.0118654
0.0492572,0.0221573,0.0240407,-0.00748062,0.0107995,0.0184081
0.0245577,0.0210515,-0.00809803,0.00191414,0.00141984,0.00311303
0.0064618,-0.00669853,-0.0026438,0.00704467,-0.00176233,0.000608683
0.00957318,-0.0238145,-0.0153424,0.000952005,0.00141907,-0.0038259
0.011749,-0.0238032,-0.00785477,0.00228333,0.00297755,0.00735509
0.00848855,-0.0366361,-0.0173993,0.00141144,0.0019418,-0.00152636
0.00527595,-0.0430465,-0.0195071,-0.00755888,-0.000748515,-0.000902772
-0.00970261,-0.0248972,-0.0314323,-0.00181878,0.00616789,0.0126721
-0.0141162,-0.00784857,-0.0582725,-0.0107161,-0.00827181,0.00876307
-0.0341758,-0.00777964,-0.0273624,0.00771397,0.0054813,-0.00327516
-0.0577848,-0.00994661,-0.0552171,0.0343516,-0.0192386,0.00346422
-0.0673277,0.0752071,-0.23317,0.170033,-0.114778,0.0121481
-0.478273,0.106723,-0.713575,0.149406,-0.075675,0.0331247
0.200076,-0.0708834,-0.58274,0.147673,-0.0841871,0.0619348
-0.461204,-0.290283,-0.49618,0.0519851,0.0661601,0.0237701
-0.651063,-0.697878,-0.314746,-0.0222214,0.00384617,0.00647497
-0.427147,-1.17586,0.111228,-0.143004,-0.00638509,0.00304759
-0.0728818,-1.35082,0.391484,-0.176314,0.0143644,0.0221343
0.228406,-1.52472,1.25598,-0.139164,-0.178592,0.0619061
-1.40491,-1.25854,2.49608,-0.0185912,-0.373289,0.140517
-2.53534,-0.799605,3.0028,0.398867,0.139374,0.099739
1.17989,-0.016441,1.65257,0.0832044,0.213772,0.0652399
-0.40772,0.164767,0.744744,-0.0580556,0.255106,0.0472431
-0.698597,-0.0391846,0.0515542,-0.109825,0.366729,0.0258049
-0.221012,0.485509,-0.846489,-0.00844997,0.266611,-0.0580981
0.724627,0.460518,-1.2894,0.0744937,0.119422,-0.000170827
1.79711,-0.000136145,-0.972543,0.0441337,-0.050216,-0.0920612
-0.120969,-0.175405,-0.628138,0.0418274,-0.225235,-0.0100874
0.134338,-0.275935,0.0241527,0.100348,-0.154313,0.036698
-0.243151,-0.247658,0.149703,0.00630778,-0.191111,0.109356
-0.826818,-0.154363,0.714259,0.0109697,-0.118063,0.14593
-0.108335,0.16302,1.0974,0.0361301,0.064842,0.0438641
-0.020343,0.196377,0.663721,0.0139475,0.122087,0.0135955
0.0658973,0.122733,0.124952,-0.0143971,0.181585,-0.0336918
-0.0439263,0.0324551,-0.236008,-0.00669211,0.147929,-0.0314822
0.164035,0.0338655,-0.561115,0.00721478,0.0878829,-0.0361241
0.305828,-0.0637212,-0.717014,0.0101124,-0.0260413,-0.0135706
0.0215547,-0.182752,-0.491864,-0.0188115,-0.0940537,0.0391614
0.158641,0.0326494,-0.0375891,-0.0163035,-0.0850805,0.0658621
0.273486,0.152427,0.0913463,0.0243037,-0.0741388,0.0474312
0.0949256,0.154828,0.165455,0.0105836,-0.0432181,0.0120981
0.00430568,0.141308,0.336155,0.0135124,-0.00676104,-0.0118605
-0.0174693,0.0813781,0.263809,0.00614351,0.0326227,-0.0228619
0.0113077,0.0233737,0.0922711,0.0232283,0.0573426,-0.0159311
0.157729,-0.0313875,-0.00619199,-0.00135326,0.0506602,-0.0164174
0.0363644,-0.0977953,-0.161141,0.000667453,0.0240914,0.00798911
0.115188,-0.0732976,-0.167415,0.0008986,-0.0021078,0.0336148
0.0598307,-0.0358599,-0.162523,0.00825751,-0.0240103,0.0506891
0.0279419,0.0549703,-0.15789,0.0150287,-0.0478683,0.0502093
-0.0324582,0.0989027,-0.106046,0.00707364,-0.0711373,0.0215943
-0.0523978,0.0800937,0.124787,0.0367174,-0.0762212,-0.00282842
-0.143297,0.00561482,0.254211,-0.00248677,-0.0412038,-0.0115414
-0.0967094,-0.0134199,0.38486,0.00361264,0.0102389,-0.00572002
-0.118649,-0.00717972,0.278962,-0.00542986,0.0591497,-0.00379556
0.0499761,-0.0096735,0.14712,-0.00382245,0.0847168,-0.0148084
-0.124316,-0.128586,-0.123078,0.0210976,0.0907062,0.00379503
-0.0635378,-0.0648482,-0.299557,-0.0645027,0.0588005,0.00919688
0.142016,0.00439314,-0.320606,0.0302278,0.00800067,-0.00297099
-0.105974,-0.0736168,-0.446039,0.0240981,-0.0620513,0.0181749
0.0302075,-0.0119673,0.0487641,0.00401616,-0.093349,0.000838459
-0.285278,-0.0923037,0.396417,-0.0255668,-0.0334204,0.00402045
-0.201715,0.0601825,0.280351,0.0347537,0.0665043,0.0125476
-0.156867,0.00477246,-0.233047,-0.0174465,0.0639252,-0.00261712
-0.270491,-0.0594232,-0.340968,-0.00466073,-0.00603992,0.0366698
0.0775034,0.152285,-0.0749962,0.00220162,-0.0356912,0.0209993
0.877499,0.268972,0.415524,0.0154717,0.00406846,-0.0703464
0.301056,0.26193,0.415549,0.0463437,0.0842077,0.00830567
0.0916125,-0.0179134,0.339649,-0.0356869,0.0336564,-0.00419104
0.337771,0.00478138,-0.0143005,0.00729603,0.0971853,0.00403118
0.323676,-0.210267,-0.213827,-0.0174029,0.0331356,0.0183648
-0.0555079,-0.0692704,-0.38177,0.0166888,0.00862181,0.0211521
0.0424545,-0.0362549,-0.395506,0.0195797,-0.0656884,0.0292174
-0.0444754,-0.00797773,-0.146001,0.0117875,-0.0970948,0.0327915
-0.0477026,0.0513797,0.199782,0.0102942,-0.0799337,0.0135171
-0.166269,0.0121774,0.332079,0.0149491,-0.0393108,0.000766635
-0.151214,-0.070032,0.362584,-0.00363684,0.02119,-0.00887573
-0.25436,-0.0552523,0.217862,-0.00327641,0.135998,-0.0312049
-0.432005,0.0292979,-0.987492,-0.0103649,0.313454,0.0326409
0.240424,0.281452,-1.88517,-0.0378349,0.244525,0.0764565
0.83109,0.597255,-1.85082,0.0291632,0.0461349,0.103654
1.17594,0.947823,-1.58896,0.166499,-0.0585493,0.0697562
0.509214,0.519372,-1.32478,0.182382,-0.292111,0.125255
-2.14559,-0.0396572,-0.844949,0.1199,-0.159451,-0.0368096
-0.141894,-0.454034,-0.538797,0.09087,0.451315,-0.0684226
1.20025,0.0752039,-0.296802,0.0397012,0.000980139,0.00725603
1.36766,0.0302599,-0.270243,0.0506524,0.153254,0.036245
0.604062,-0.173364,-0.369008,0.036775,-0.0102084,-0.094242
-0.667186,0.0692576,-0.228964,0.0259928,-0.300441,0.0794247
-0.420377,0.394709,-0.323106,0.0213509,-0.0255699,0.00792968
-0.992323,0.533298,-0.118866,0.00825076,-0.200423,-0.000747681
0.357709,0.227451,0.270676,-0.0277613,-0.0391099,0.0320512
0.66536,0.258732,0.577202,-0.0328154,-0.0624223,0.00889695
0.957759,0.150593,-0.0503182,0.082124,0.205522,-0.0124179
0.623157,0.240551,-0.0639074,-0.0214968,-0.176765,0.0926057
-1.01912,-0.0655879,0.0857852,0.0656811,-0.139432,-0.00262672
-1.38373,-0.193538,0.0628138,0.0798182,0.0247121,0.0312456
-1.31364,-0.469524,-0.129594,0.0275168,0.180255,0.0255857
0.156596,-0.128599,-0.00876907,-0.125565,-0.00619555,0.0305924
0.292426,0.0807826,0.0576951,-0.0199344,-0.0177001,0.0423822
0.51304,0.101992,0.0647947,0.0454873,-0.0110687,0.000619769
0.985315,0.118798,0.105987,0.000734776,-0.0205233,-0.0114194
1.20887,0.101482,0.0738137,-0.0332494,0.0270594,0.0619835
1.40339,-0.374078,0.0391609,-0.059008,0.00636452,-0.0867748
1.21216,-0.851583,1.77884,-0.078282,-0.616368,-0.211602
-1.57456,0.0136004,3.59091,0.26179,-0.441209,0.00741887
-0.211785,-0.114219,3.77848,0.548948,0.149919,0.209662
0.639326,0.601813,1.89442,0.164736,0.129441,0.215196
-1.16249,0.341581,0.128554,0.0183108,0.561597,0.0226811
0.492835,0.191822,-1.71803,-0.181292,0.735775,-0.0775292
1.78726,0.180827,-3.16941,0.0160295,0.494918,-0.0436133
3.07389,0.13378,-3.24976,0.212391,0.0497447,0.167187
3.71632,0.303715,-2.92045,0.333668,-0.0645131,0.194153
3.12027,-0.411057,-2.03764,0.254528,-0.120059,0.19439
1.55559,-0.246569,-0.891712,0.113106,-0.119849,0.241336
0.490442,0.07355,-0.326154,0.0159679,-0.0144132,0.0867321
0.0573509,-0.136225,-0.746317,0.0589476,0.0945023,-0.1589
0.0217439,-0.447439,-0.970945,0.0495259,-0.138723,-0.0433822
-0.181434,-0.733289,-1.42394,-0.10858,0.129365,-0.0561264
-0.045034,-0.299406,-0.0351268,0.0591019,-0.0168751,0.0480075
0.499499,-0.352714,0.870099,0.219309,0.0854504,0.184738
-3.39807,0.612108,1.14948,0.145206,-0.696291,0.642913
-1.16289,1.55792,2.9809,-0.262559,-0.148511,-0.0801265
-1.03702,2.01876,2.07234,-0.300852,0.273365,-0.0303209
-1.69269,0.885781,1.3977,-0.048237,0.00851709,-0.233461
-2.97236,-1.22939,0.162952,0.673668,-0.390803,0.322487
-6.2482,-2.79671,1.65134,0.254757,-0.07701,0.192865
-5.64654,-1.47664,-0.664957,-0.109928,0.0415932,0.331297
0.864852,1.16279,-0.354252,0.3458,-0.131946,-0.10992
3.19266,1.01755,0.672569,0.311202,-0.210014,0.280445
1.22543,0.834355,1.35127,0.10808,0.138553,0.0864843
0.374835,0.4327,0.977797,0.0155924,0.375062,-0.181292
-0.417027,0.25181,0.427891,-0.0787091,0.257659,-0.217961
2.71231,0.868576,0.184524,-0.131189,-0.0292565,-0.103418
1.70529,0.440084,-0.33146,-0.19194,0.104013,-0.0863863
0.490954,0.155626,-0.426048,-0.140816,-0.101831,-0.124683
0.528672,-0.232287,-0.498184,0.01423,0.100738,-0.0873522
-0.0965274,-0.234944,-0.455633,0.0295148,-0.0269977,-0.0204647
1.38721,-0.528548,-0.337055,0.0290285,0.174178,-0.150687
-0.734062,0.13484,-0.0148751,0.0516341,-0.287636,0.382469
-0.033108,0.616574,0.273109,0.163563,0.187137,-0.0820774
0.77711,0.0825145,0.0370651,-0.0229469,-0.0761498,0.0525811
-0.0984681,-0.257762,-0.0655071,0.0237465,0.0574412,0.0381035
-0.16302,-0.0557238,-0.00936218,-0.00369036,-0.00949627,0.104678
-0.163326,-0.0971552,0.121256,0.0146733,0.0165638,-0.0311773
-0.149522,-0.0640696,0.110408,0.00814819,-0.0170459,-0.0185608
-0.0147712,0.0417097,0.183949,0.0281208,0.0177737,0.00810409
-0.0746236,0.162389,0.142342,-0.0064255,0.00784528,0.0124038
-0.06638,-0.0160614,0.111476,-0.00111318,-0.0031215,-0.064347
-0.0727338,-0.039542,0.120152,0.0182122,0.00111413,0.0394192
-0.106112,-0.00544187,0.0589059,0.0093177,0.00443566,-0.033825
-0.130933,-0.109115,0.0156784,-0.0280563,0.00237793,-0.0485623
-0.141819,-0.123058,-0.0216691,-0.028343,0.00162041,-0.0286085
0.0392309,-0.060206,-0.0416981,-0.0172725,-0.00762331,-0.024715
0.138668,0.0252631,0.00833651,0.00749886,0.028769,0.0189453
-0.0139168,-0.0579923,-0.0205426,0.000442028,-0.0140327,0.00290197
0.0680066,0.0294898,-0.0485833,-0.0186686,-0.00747478,0.00970566
0.144804,0.0476114,-0.0366588,-0.0102379,0.0103565,0.00948077
0.0062799,-0.0142323,-0.0325031,0.0187478,0.00917256,0.00548625
0.04259,0.0348942,-0.0230697,-0.000505626,-0.0018177,0.00108916
0.0596814,0.0701402,-0.0189624,-0.00487065,-0.000777066,0.00310528
-0.00734166,0.0638137,-0.00101001,0.0013175,-0.00081712,-0.00340652
-0.0297885,0.0627411,-0.0128387,-0.00359321,-0.00187093,-0.0187736
0.0618803,0.09045,-0.00946762,-0.0214494,0.00261307,-0.0220423
0.0969623,0.0829243,-0.0221096,-0.000705838,0.0031386,-0.00458574
0.117305,0.0733257,-0.00487707,0.011835,0.00776386,-0.00469053
0.0959026,0.04341,-0.017585,0.00258148,0.00555718,0.00881863
0.00218002,0.0296089,-0.00929921,0.00248283,0.000877976,0.0245944
-0.0522345,-0.013093,-0.0177737,-0.00186622,0.00517893,0.00475663
-0.0607678,-0.0440621,-0.0165368,-0.00471592,-0.0010286,0.00174463
-0.0554042,-0.0750303,-0.00776533,0.0018239,0.00110078,9.60827e-05
-0.0520768,-0.0814015,0.0147234,0.00225937,0.00533426,0.00369096
-0.0403289,-0.0653815,0.0178683,-0.00435352,0.00590473,-0.01096
-0.0189515,-0.0215896,0.0251458,0.00085175,0.0120553,-0.0106508
-0.0307023,0.00831637,0.017427,-0.00701994,-0.0062086,-0.000121474
-0.0115833,0.00187503,0.00792653,-0.00312829,-0.00265872,0.000711799
-0.0158992,-0.0162938,0.000548284,-0.0032602,0.00412792,-0.00455844
0.00432085,-0.0152484,-0.00365611,-0.00337678,0.00443679,-0.00475252
-0.0243873,-0.0205488,0.0069544,4.11272e-05,-0.00829524,-0.00173855
-0.0116536,-0.0109616,-0.00267574,-0.00718296,0.00387299,-0.00333482
-0.0127631,-0.00883625,-0.0101754,-0.0033412,0.000338376,0.0123542
-0.0169924,-0.00775687,-0.00485312,0.00228286,0.0047614,-0.00306809
-0.00091854,0.008279,0.0089914,0.00310814,0.00622392,-0.00427502
-0.014778,0.0189679,0.00673264,-0.000871539,-0.00106561,0.00497162
0.0172418,0.0242996,0.015366,0.000821948,0.00417,-0.00695896
-0.00513124,0.0050931,0.0175426,-0.00554299,-0.00387239,0.00533706
-0.00517107,-0.0237562,0.0134571,-0.00491953,0.000982046,0.00427681
-0.00949006,0.00293066,0.00151636,-0.00409544,0.00231266,0.00255984
-0.0170081,-0.0259167,-0.00580663,-0.0064739,-0.000989497,0.00508958
-0.0233965,-0.0291148,-0.00474117,-0.00119555,0.000678897,0.00409508
-0.00103043,0.00183837,-0.00913136,-0.00230455,-0.00409895,0.00156552
-0.000945696,0.00506692,0.00473842,0.000576913,0.00181925,0.00941265
-0.0180064,-0.00667243,0.0036825,-0.00361431,0.00567222,-0.00113356
-0.0019651,0.0211029,0.011039,0.00158787,0.00489199,-0.00124454
-0.00939331,0.030729,0.0152241,-0.00408649,-0.00180805,-0.00439578
-0.00724316,0.00510047,0.0207396,-0.00149465,0.00220662,-0.00549328
0.0108326,0.00507517,0.0143979,-0.00254881,-0.00107598,0.00172985
0.00227382,0.0253638,0.00675596,-0.00247526,-0.00130689,-0.00196016
0.00540477,0.0221389,-0.00389731,-0.00247699,0.00213563,0.00153911
0.00107868,0.00930725,-0.0134469,-0.00344765,0.006091,-0.00888193
-0.0266027,0.00292587,-0.00923444,-0.00196671,0.000913739,0.00080055
0.00108619,-0.00137123,-0.0112402,-0.0014255,-0.000183105,-0.00769269
0.0149715,-0.0109835,-0.0047166,1.91927e-05,0.00142044,-0.00722516
0.00970896,-0.0216416,0.00708707,-0.00433517,0.00378674,-0.0101777
0.0629616,0.0199648,-0.000461987,-0.00551695,0.00645345,-0.0105901
0.0298427,0.0242365,-0.0155726,-0.00620711,-0.00196254,-0.00105083
0.0212598,0.00927373,-0.0240563,-0.00165248,0.0052979,0.000538588
0.0404432,0.0295527,-0.0251834,-0.00181228,-0.000474215,-0.00599319
0.0373007,-0.0152858,-0.0120848,-0.00186992,0.00682658,-0.0135598
0.0469051,-0.0377187,-0.00762732,-0.00425637,-0.00192398,-0.00841022
0.0596536,-0.0366712,-0.0139973,-0.00812912,-0.00484306,-0.008183
0.0607404,-0.0452095,-0.00966526,-0.00403339,0.00190556,-0.00395125
0.0415102,-0.0697747,-0.0159889,-0.0071044,-0.000362217,-0.00572371
0.0244999,-0.0825661,-0.00849275,-0.0015204,0.00450981,-0.00202644
0.050019,-0.0494926,-0.0203628,0.00293422,0.00156748,0.0055781
0.00947089,-0.11463,-0.0243641,0.00534368,-0.00470078,0.0272697
-0.0128655,-0.111397,-0.0180599,0.0103768,-0.00235164,0.0155355
0.0632512,-0.026944,0.0521964,0.0749762,0.0735712,-0.00933915
0.0502081,0.0990193,-0.00209182,-0.052129,-0.0175978,0.0415955
-0.0720228,0.0447306,0.0533612,0.0209468,0.00954258,0.040556
-0.0829002,0.0991441,0.0112973,0.0179297,0.00630856,0.0308252
-0.0701601,0.134366,0.000433083,-0.0130806,-0.00342751,0.0422181
-0.0693183,0.147116,-0.03811,-0.0041067,0.0184577,-0.00447112
-0.042758,0.119305,-0.048517,-0.00998068,0.00519955,-0.00807464
0.539754,0.203457,0.0685128,0.00157887,0.114274,-0.102266
0.0881216,0.150438,0.0970816,0.047073,0.014847,0.12371
-0.000289717,0.0650697,0.109057,-0.10928,0.00728595,-0.102772
0.112544,-0.148656,0.109798,0.0845894,0.0276473,0.0154109
0.123407,-0.153942,0.145129,-0.0121915,0.0178264,0.000419855
0.13616,-0.0930841,0.134099,-0.0453429,-0.00465745,-0.0124766
0.113568,-0.103811,0.0988261,-0.00289828,0.0197151,-0.00377303
0.545058,-0.394655,0.118352,-0.0203977,0.0281239,-0.0810046
0.0690278,-0.292758,0.151169,-0.031611,-0.0114187,0.0470182
0.0325234,-0.129402,0.0901405,-0.0288464,0.0255004,0.00155687
0.0670821,0.0917917,0.147599,0.0291111,-0.0226102,0.0345968
-0.106162,-0.0278824,0.0526346,-0.0818022,-0.0201235,-0.0156091
-0.099895,-0.036468,0.0324128,0.0312471,-0.00014025,-0.0116246
-0.184557,-0.0215936,-0.0502713,0.00807399,-0.0381098,0.0352539
-0.185746,-0.0526025,-0.0682376,-0.0254894,-0.002184,-0.0613696
-0.0567946,-0.148816,-0.055378,-0.00474435,-0.024536,-0.0303648
0.066003,-0.098634,-0.0157108,0.00606728,-0.0105757,0.0178242
-0.168393,0.0713658,-0.0283747,-0.0201657,0.00128382,-0.0204464
-0.051483,0.08828,-0.0793332,-0.0126624,0.00394046,-0.0414283
0.105106,0.0518364,-0.0827841,-0.0174072,-0.00693899,-0.00285041
0.0594259,0.0583196,-0.0605609,0.0243406,0.010531,0.0120355
0.00845896,-0.0195575,-0.0239182,-0.0175276,-0.0162207,0.00426888
0.0806955,0.00168541,-0.0622506,-0.0123697,-0.00479239,-0.00654048
0.0049662,-0.0495464,-0.0707489,0.00266671,-0.0191293,0.0138195
0.00730711,-0.0259899,-0.037771,0.0281625,-0.00488159,0.0317538
0.234841,0.168392,0.041953,0.0449777,0.00640064,0.0182232
-0.0603904,0.0596489,0.0372804,0.00713491,0.0125593,0.0181665
-0.647858,-0.0991539,-0.010901,0.0204839,-0.0215449,-0.00629157
-0.107193,0.0287352,0.0533307,0.0794321,-0.0266126,0.0517999
-0.0509229,-0.169266,-0.140699,0.0271208,-0.0159887,0.0405257
-0.196753,-0.077261,-0.124748,-0.160205,0.0693434,-0.0929238
0.27237,-0.109881,-0.249926,-0.028008,0.0504053,-0.0294187
-0.359697,-0.105952,-0.109146,0.114012,-0.0147515,0.0423452
-0.430741,-0.216873,-0.0413809,0.000422657,0.0693673,0.00192338
-0.364108,-0.227437,0.055099,-0.024562,-0.0109524,-0.0184048
-0.655945,-0.259225,0.0766489,-0.0150859,0.0115369,0.0173789
-1.15355,-0.153873,0.242916,0.0147771,-0.0208598,-0.0466177
-0.663461,-0.390292,0.256968,-0.0565602,0.0751629,-0.11746
-2.16924,-1.09016,0.105219,-0.109662,-0.0774947,-0.352053
-0.587235,-1.45426,0.270566,-0.139568,0.206774,0.181194
1.47994,-1.56594,0.830349,-0.0651356,-0.0408345,0.333838
-1.89353,0.0166645,0.319175,0.0969118,-0.282096,-0.0461203
-1.17363,1.39471,0.665522,0.115285,-0.10422,-0.0278007
1.12514,0.68901,1.8775,0.0278581,-0.145939,0.0725661
-1.27342,0.539754,2.22956,0.118694,-0.172681,-0.0304167
-0.642207,0.134438,1.62554,0.141373,0.3153,-0.146091
0.949699,0.0843822,0.567645,0.0250204,0.23071,-0.0315364
-0.302439,-0.0970872,-0.512863,-0.0421615,0.182153,-0.00232589
0.180306,0.00736926,-1.04489,-0.0159363,0.112925,0.0790129
0.330633,0.132999,-1.2193,0.0528845,-0.0670943,0.14099
0.487494,0.152485,-1.00408,0.0534989,-0.207069,0.0977505
0.515754,0.45537,-0.0475372,0.0108272,-0.23075,0.0280429
1.19677,0.653736,0.673858,0.0165446,-0.122284,0.0240959
0.395884,0.271024,0.770573,0.0676674,-0.0686268,0.0179652
-0.551967,0.0576423,0.508772,0.0139694,0.0156642,-0.0122615
-0.256151,0.0594394,0.442556,-0.0101515,0.072259,-0.0263949
-0.380294,-0.0231766,0.180857,-0.0432841,0.0716082,-0.000914216
-0.380437,0.0010352,-0.0233745,-0.0143527,0.112796,0.0022136
-0.296442,-0.0389098,-0.227943,-0.0331302,0.0619399,0.0145125
-0.137383,0.114854,-0.192016,0.0451057,0.0354639,-0.000122666
0.144589,0.00451981,-0.246874,0.0453638,0.0109731,-0.0375811
0.0733973,-0.18548,-0.196759,-0.00396168,-0.0721633,-0.00490844
-0.266542,-0.083148,0.143208,-0.0373728,-0.0513133,0.00162578
0.148785,0.0634181,0.449388,-0.0397679,0.0595954,0.00417781
0.385987,0.00758201,0.386531,-0.022296,0.122105,0.0141488
0.0809065,-0.160905,-0.19048,0.0373312,0.121939,0.0533873
0.0706072,-0.128619,-0.668325,-0.00876337,0.043945,0.0170868
0.0639699,-0.147599,-0.529327,0.0546204,-0.0255623,-0.0115936
0.409105,-0.152914,-0.365598,0.0447924,-0.0836887,-0.0389238
0.0554185,-0.0935754,-0.182464,0.0472451,-0.142403,-0.0319939
-0.229161,-0.151505,0.164092,0.00411791,-0.131754,0.0140753
-0.243062,0.0253407,0.496248,-0.00104177,-0.0709278,0.0194053
-0.521875,0.0619678,0.551594,-0.0030573,-0.0251323,0.0517755
-0.174164,0.184321,0.421752,-0.028973,0.0790803,0.0262764
0.101933,0.0535386,0.277256,-0.00785589,0.115938,-0.0255858
-0.135383,-0.0955895,-0.194918,-0.0660036,0.0674559,-0.0667346
0.361506,-0.0801503,-0.313892,-0.0576108,0.0383385,-0.0518056
0.191963,-0.161229,-0.327893,0.0137975,-0.00216269,0.000665069
-0.202592,-0.257904,-0.194118,0.093159,-0.0488462,0.0421551
-0.101762,-0.0438644,0.0773265,0.08876,-0.0417423,0.0189654
0.218916,-0.0395346,0.248382,-0.0645365,-0.0440664,0.0192071
-0.0512234,0.102865,0.3191,0.00723588,0.0100217,-0.0288205
-0.0462374,0.241295,0.0714104,0.0176328,0.0567577,0.0263814
0.0498226,0.0444396,-0.061578,-0.0289826,0.0547974,0.000486732
0.0433137,0.0177104,-0.0785255,0.00330991,0.0321845,0.00841886
0.0369095,-0.0303508,-0.076099,0.00683469,0.00616392,-0.00723803
0.0271972,0.0187507,-0.101029,-0.0358284,0.00998911,-0.00346142
0.119752,-0.0176748,-0.121814,-0.0233624,-0.0270952,0.0577108
0.133849,0.12764,-0.0938567,0.0467838,-0.00292593,0.00877774
0.0911112,0.204224,-0.298585,0.0184798,-0.0408468,0.0141897
-0.148798,-0.000395448,-0.130411,0.0403052,-0.0762222,0.0113048
-0.00208914,0.0483935,0.344212,-0.000349402,-0.0896688,0.0134774
-0.0061426,-0.0455291,0.387542,-0.0105355,-0.0169455,0.0295441
-0.465865,-0.0698906,0.307985,0.00978839,0.0391175,0.00946867
-0.186813,-0.0191795,0.106764,-0.00243247,0.0308648,0.0121661
-0.287673,-0.142133,0.000337361,-0.00423336,0.0567523,-0.00980103
-0.00496396,-0.158265,0.0602663,-0.0249883,0.0972946,0.00619209
0.329941,-0.281244,0.127492,-0.0177028,0.0489962,-0.0205083
0.308613,-0.121339,-0.0680833,-0.00603235,0.048129,-0.0122495
0.232162,0.350869,-0.0660882,-0.0319825,0.0277231,-0.031695
0.106371,0.405105,-0.259232,0.0135552,0.0676157,0.058345
0.187359,0.120191,-0.054075,-0.0122147,-0.0665207,-0.00292104
0.0672534,0.0552192,0.001455,0.0348279,-0.0562835,-0.0162634
-0.650816,-0.18746,-1.03178,0.078692,0.164942,-0.0614124
-2.51304,-0.860747,-3.23967,0.171942,0.338542,-0.0322377
0.720343,-0.946181,-3.66079,0.117075,0.201577,-0.110297
1.39546,-0.451821,-2.88364,0.162351,-0.137017,0.0927414
1.57981,-0.78852,-2.31556,0.239088,0.00671047,0.0279279
0.285412,-0.578283,-1.76831,0.166465,-0.251881,0.0463601
0.251713,-0.789747,-1.14844,0.070647,-0.158475,-0.0676363
0.321449,-0.520959,-0.736428,-0.0704419,-0.0639962,0.0762789
-0.498788,0.0177014,-0.928904,-0.026477,0.041265,0.224029
-0.357213,1.07051,-0.512094,0.0841382,-0.108393,0.19006
3.48942,1.9514,0.324645,0.133685,0.00833529,0.116083
0.207328,1.47668,0.490661,0.0909713,0.286957,-0.294424
-0.67858,1.13544,0.442543,0.246212,-0.241099,0.0866163
-0.433617,-0.503633,-0.3184,0.00695537,0.0195776,-0.193034
-0.100808,-1.00362,-0.211342,0.0581529,-0.00204307,-0.0755618
0.258586,-0.925519,0.0128046,0.0347342,-0.0248832,-0.00403571
-0.0317148,-0.857842,0.104233,0.0278741,-0.00820374,0.037901
0.0271345,-0.776644,0.138117,0.00217476,-0.0206786,0.0449362
0.22447,-0.620797,0.160284,0.00573391,0.0201455,0.0285764
0.0896934,-0.44462,0.0571326,-0.00164962,0.0196214,0.0190865
0.0551555,-0.329376,-0.0270806,-0.0119905,0.0231097,0.00784862
0.0935652,-0.227927,-0.0275949,-0.00719136,-0.00232059,0.0187075
0.0222187,-0.152029,-0.0272874,0.00161242,0.0309693,0.0295954
-0.12281,-0.162011,0.309865,0.0137048,-0.0166672,0.0543269
-0.415929,-0.150205,0.82582,0.0152155,-0.000571728,0.0129206
-0.0552312,0.0652497,0.186842,-0.00102797,0.128698,-0.00539267
0.041255,0.0604549,-0.0702635,-0.0246153,0.0233769,-0.0108911
0.0435066,0.0327187,-0.0476362,0.0165793,0.0141127,-0.0273931
0.0289443,0.00186078,0.0144785,0.0108113,-0.00390625,-0.00780547
0.236299,-0.146565,0.135884,-0.00212881,-0.031599,-0.0820667
0.53662,-0.812046,0.882826,-0.0208159,-0.47084,-0.0253767
-2.76086,-0.753935,0.922455,0.188839,0.114728,0.105333
-0.322381,-0.0481195,0.602203,0.0476108,0.0570219,0.173797
0.393457,0.679866,1.21879,-0.00648916,-0.280511,0.136069
1.08654,1.47918,2.29961,0.0484266,-0.204869,0.107168
2.31191,2.66579,2.7335,0.0554319,-0.147582,0.107259
0.27123,3.23898,2.82151,0.197032,-0.154756,0.2607
-0.504424,2.32289,2.73159,0.372709,0.128101,-0.0572787
-0.46336,1.2638,1.85394,0.269354,0.263277,-0.216703
-0.00908534,0.460041,0.562685,0.0713443,0.305027,-0.262492
-0.359144,-0.283707,-0.356942,0.00182623,0.210976,-0.216249
-0.937343,-0.729779,-0.967368,0.0173024,0.118487,-0.0691663
-0.839342,-0.653274,-1.15661,0.0115741,0.0218935,0.0185574
0.196392,-0.202391,-0.65242,0.0247868,-0.0641088,0.0341036
0.286889,0.0622591,-0.153762,0.00619811,-0.152462,0.0963427
0.400646,0.271302,0.319698,-0.00881463,-0.114,0.0472159
0.166459,0.255836,0.536885,0.0112967,-0.0385818,-0.000244379
0.468642,0.255484,0.466433,0.0128845,0.0561752,-0.0470338
0.441357,0.127907,0.1915,0.00832504,0.0682348,-0.0330957
0.113144,-0.0262755,-0.157046,0.0115997,0.0641178,-0.0184797
0.0838416,-0.0790553,-0.41965,0.0144848,0.0133581,0.00701833
-0.0183945,-0.148385,-0.404625,0.0306946,-0.0569922,0.0500559
-0.0776687,-0.0250893,-0.171656,0.00332248,-0.0491018,0.0477756
-0.100734,0.0113522,-0.112148,0.0544941,-0.0937345,0.0357214
-0.0156235,0.0353693,0.220304,0.0268131,-0.0788829,0.00176084
0.0849307,0.0410614,0.464249,-0.0525188,-0.0299422,-0.0131085
-0.108219,-0.0122805,0.420066,-0.0289404,0.0424377,0.00414455
-0.0749132,-0.0252196,-0.245369,0.0306724,0.101851,0.0449982
-0.0724997,-0.0289671,-0.554116,-0.0352317,0.0361012,0.0227774
-0.227033,-0.0563176,-0.379292,0.00907981,-0.072147,0.0409827
-0.23431,0.0201957,0.00055127,0.0678326,-0.0880297,0.0390052
0.0408514,0.179512,0.207829,0.00765377,-0.111178,0.00344479
-0.0597722,0.110964,0.670535,0.0195481,-0.0559342,-0.010754
-0.0940522,0.0995,0.818994,-0.00617731,0.0608467,-0.032684
0.00722742,0.0101702,0.480185,-0.0125105,0.157832,-0.0139591
-0.0697066,-0.015336,-0.08835,-0.00306255,0.165773,-0.00492972
0.0880366,0.0170453,-0.43949,-0.018163,0.110903,-0.0213091
0.176012,0.0104358,-0.516046,0.0090847,0.0353515,-0.027028
0.315007,-0.0215705,-0.433047,-0.0125601,-0.0384514,-0.0378076
0.151002,-0.0819889,-0.235607,0.0226273,-0.0726544,-0.00947315
0.125774,-0.0473798,-0.00300487,-0.00967193,-0.0737074,0.0135904
0.185093,0.0609666,0.284999,-0.0122887,-0.0349697,0.0181706
0.0904665,0.0514865,0.319963,0.00748026,0.0177901,0.00348318
0.102879,0.0232873,0.0819279,-0.00200164,0.0456994,-0.00255543
-0.0495587,-0.0303308,-0.103138,-0.00122595,0.0306754,0.00275135
-0.065019,-0.0294089,-0.194022,0.00193417,-0.00544837,0.00733453
-0.113538,-0.0356371,-0.110822,0.00931191,-0.0330504,0.0106417
-0.0989908,-0.0130162,0.00341046,-0.0105994,-0.0386725,-0.00364637
-0.150221,-0.0319148,0.168949,-0.000585794,-0.0263131,-0.00638264
-0.118951,-0.0083334,0.228746,-0.00516653,0.0221238,-0.0051356
-0.104605,-0.00103598,0.132595,-0.0107503,0.0530867,-0.00236666
-0.0360953,-0.00557823,0.00787085,-0.0243796,0.0472367,-0.0140741
-0.117743,-0.062318,-0.0989122,0.00432485,0.0339335,-0.00446355
-0.09576,-0.0688576,-0.163963,0.0183887,0.0166366,0.0151556
0.0221255,-0.00573415,-0.0560168,0.0497184,0.000510186,-0.00757492
0.0342111,-0.0302009,0.00722454,0.0374271,-0.0101665,-0.0232216
-0.0425011,-0.0440273,0.00916614,-0.0323607,0.00219214,0.00357103
-0.0391549,-0.000196111,0.0302628,-0.0142334,0.0108235,0.0281152
0.0611274,0.0788001,0.0440143,-0.00613713,-0.00251496,0.0208461
0.0756976,0.0872314,-0.0147493,0.000671148,0.0150297,-0.00157011
0.0607618,0.0637417,-0.015724,4.09484e-05,0.00817683,-0.0111432
0.0413833,0.0102947,-0.0442954,0.00726753,0.00571278,-0.0103895
0.0105574,0.031701,-0.0338662,0.00744337,-0.00563613,0.0161893
0.120694,0.0509566,0.0294589,0.00471932,0.00423002,-0.0134937
0.0278317,-0.00242287,0.00702007,-0.00357807,0.00967506,-0.00723904
0.0499799,0.00176588,-0.031388,0.00827193,0.00945425,0.00535661
0.0136491,-0.0121216,-0.0474604,-0.00309646,-0.00988352,0.0123601
-0.0149861,-0.0120607,-0.025131,0.00092423,-0.019749,0.0215068
-0.0924581,-0.0151162,0.026954,-0.0558764,-0.0359375,0.0327802
0.0629001,0.160487,0.333043,0.129247,0.0181012,-0.00159138
-0.109642,-0.132627,0.0148305,0.0523829,-0.0365689,0.00809711
-0.0180881,0.0972209,0.15899,0.0103326,-0.00184882,0.0257649
0.241661,-0.315752,0.513091,-0.0138067,0.0655243,0.0699726
-0.730673,0.077091,0.557123,-0.0826048,0.00743684,-0.0239885
0.0881761,0.225087,0.63402,0.0053035,0.161441,0.00562751
-0.242685,-0.130347,0.0388903,0.00633693,0.0978415,0.0100748
0.0982152,-0.387888,-0.48277,0.0560338,0.104797,-0.0361012
-0.431892,-0.450973,-0.747186,0.027821,0.0104507,0.00875062
0.219042,0.235257,-0.823989,0.0290098,-0.0897999,0.0558258
0.132555,0.480785,-0.341898,-0.0382297,-0.14266,0.0709448
0.776015,-0.0854823,-0.130674,0.183784,-0.0346008,0.00627661
-0.12974,-0.382045,-0.294547,0.0435758,-0.142724,-0.0148221
0.0771406,-0.616496,0.11162,0.0628709,-0.137013,-0.0482042
-0.606238,-0.790939,0.240543,0.0663756,-0.0731371,-0.0222899
-0.240198,-0.435081,0.482145,-0.0405407,-0.0178603,0.00625509
-1.03546,-0.328859,0.406894,-0.0553428,-0.00983387,0.059993
-0.388933,0.193923,0.320447,-0.0920571,0.0151848,0.0712587
-0.763486,0.198446,-0.308162,-0.103245,-0.16133,0.181332
-2.0257,0.025431,-0.224155,0.0278163,-0.0778318,0.140768
-1.28745,0.209779,0.447331,0.00522381,0.0165868,-0.0386167
-0.535053,0.343695,0.995256,0.136274,0.10271,-0.106198
0.47749,0.267188,1.05404,-0.00587714,0.258401,-0.134545
0.458345,0.0456389,0.188888,0.104553,0.241764,-0.0254891
0.207897,-0.180478,-0.334123,-0.118732,0.287342,-0.0787778
0.0426314,-0.224799,-0.705207,0.0259123,0.134812,0.0992249
-0.0614903,-0.153697,-1.01805,0.0273608,0.0702186,0.12441
-0.108493,0.0724154,-1.23658,0.0275098,-0.0936143,0.124798
-0.270572,0.209079,-0.734836,0.132818,-0.209179,0.0987387
0.324035,0.449755,0.321457,-0.00827473,-0.19886,-0.0355371
0.0887681,0.252586,1.08686,0.125428,-0.138729,-0.0202723
0.348453,-0.0165326,1.23916,0.0445256,0.0686541,-0.106496
-0.154827,-0.360033,0.675367,-0.00242102,0.145594,-0.032214
-0.347493,-0.403799,-0.00139891,-0.0567932,0.173628,0.00673342
-0.00751804,-0.361624,-0.170282,0.0124587,0.141997,0.124681
-0.00580396,-0.217117,-0.609276,-0.00953215,0.108882,0.112424
-0.342249,0.0129747,-1.12168,0.0694922,-0.0272504,0.0857642
0.381108,0.320298,-0.991681,0.00741458,-0.154041,-0.0108324
0.31338,0.213103,-0.0136085,0.102113,-0.224554,-0.073776
0.293975,0.153731,0.844668,0.0270994,-0.16721,-0.145806
0.107917,-0.135581,1.47303,0.0105448,-0.0367333,-0.0674346
-0.121931,-0.334597,1.18497,0.0454895,0.189015,0.0168312
0.0470887,-0.222119,0.217932,-0.0465066,0.248595,0.0455291
-0.107681,-0.130408,-0.548251,-0.0470697,0.202176,0.0619943
-0.0493845,-0.0449658,-1.14157,0.0576792,0.100127,-0.00451118
-0.0286667,0.060581,-1.25009,0.054727,-0.100799,-0.00283271
0.260683,0.218785,-0.451906,0.0107708,-0.155552,-0.0737864
0.401797,0.152464,0.166613,-0.00105399,-0.191759,-0.0651509
0.325637,0.201368,0.611557,0.0181038,-0.103728,-0.0283332
0.587722,0.151275,0.789156,0.0233279,-0.0211009,0.00994533
-0.445212,-0.0334708,0.372996,0.00651002,0.0468519,0.0399376
0.078701,0.0810769,0.131677,-0.0184751,0.11461,0.0196999
-0.147993,0.0155511,-0.175392,0.00674647,0.0736669,0.0111843
-0.0960096,0.0493108,-0.394448,-0.0138628,0.0160435,0.0152665
-0.016665,0.0686209,-0.313074,-0.0084483,-0.0362215,0.00987244
-0.0194224,0.0615865,-0.0608841,0.00566298,-0.0579022,-0.00415194
0.0408144,0.0673585,0.211759,0.00495207,-0.0295996,-0.0145612
0.0765127,0.0269033,0.305109,0.000273287,0.0186189,-0.0143743
0.0704957,-0.00960657,0.193135,0.00500435,0.057518,0.00670689
0.105307,0.00704214,-0.0451072,-0.00383145,0.0637873,0.0151647
0.0970003,0.036705,-0.18957,-0.000181973,0.0301278,0.014078
0.0529552,0.00993145,-0.247256,0.00346494,-0.0107369,0.0194517
0.0137451,0.0175006,-0.212195,0.00715744,-0.0422644,0.0138625
-0.0235451,0.0210455,-0.0339267,0.0203012,-0.0506911,-0.0115327
-0.0493166,-0.00965584,0.113624,0.00272977,-0.0290323,-0.0278476
-0.0617458,-0.0490583,0.176869,0.0174646,0.00109786,0.000814259
-0.0599039,-0.039532,0.127665,-0.0147216,0.0108445,0.0193673
-0.0134377,0.00837367,0.0538042,-0.00499856,0.0296291,0.0244018
0.0211526,0.0263347,-0.0434068,0.00262821,0.015794,0.00885022
0.00504969,0.0167001,-0.0626381,-0.000490546,0.00220847,-0.0105745
0.0158484,0.00925718,-0.0379741,-0.00208086,-0.0117536,-0.00915045
-0.0427032,-0.000295358,-0.0285164,-0.00684649,-0.0177725,0.00410873
0.0206967,0.0318547,0.0580561,0.00230128,-0.00848335,0.00628954
-0.0103927,0.0115297,0.0281554,0.00562936,0.00941259,-0.00414187
-0.000815075,-0.0130464,0.0283515,-0.0098176,0.014694,-0.000728965
0.00737033,0.0252983,-0.0317005,0.00769335,0.0256135,0.00286967
0.034646,-0.000480981,-0.100879,-0.00723058,-0.0166814,-0.021737
-0.0499696,0.0136508,0.00235103,-0.00123245,-0.0128465,0.0048551
0.0110279,0.0393136,0.0440847,-0.00376165,-0.015558,0.00385815
0.0184906,0.00940574,0.0475085,0.00220478,0.00830281,-0.00157511
0.0117705,0.0199947,-0.00814294,0.00594932,0.0134859,0.00987846
0.020346,0.032819,-0.000713332,-0.00509691,0.0159913,0.000775576
-0.00658784,0.0295484,-0.0499411,0.00898522,0.0073747,-0.0121021
-0.048019,-0.015241,-0.025233,0.000407815,-0.0109168,-0.00975728
-0.0105822,-0.00988687,-0.00162191,0.014236,-0.0133022,0.00553274
0.00781143,-0.0130229,0.0454787,-0.00110477,-0.00331822,-0.00201303
-0.0575791,-0.0194968,-0.0199,0.00939161,0.00814801,-0.00523174
0.0227571,0.00513101,0.048622,0.00249571,0.00546196,-0.00883085
-0.00835148,-0.0151999,0.0155167,-0.00648904,0.00721028,-0.00158411
-0.0160852,-0.0152738,-0.0304564,-0.00657272,0.00276309,0.0115747
0.0191186,0.0285003,-0.0274008,0.00835842,-0.0031333,0.00675696
0.0374036,0.0125159,0.0026881,0.0140061,-0.0126503,-0.0151892
-0.0070526,-0.0343577,0.0562475,0.00543821,-0.00333607,-0.01161
0.00785225,-0.0600066,0.0564719,-0.0118253,0.00646263,0.0112442
-5.56675e-05,-0.0248857,-0.0217843,-0.00719917,0.0206793,0.0235206
-0.0118191,0.0306485,-0.033941,-0.0026893,0.00877184,0.0183518
-0.0727483,0.000732666,-0.0638922,-0.00968087,-0.0050627,0.010433
0.0126357,0.0541128,-0.0446882,0.00921547,-0.0116339,0.000336826
0.0226651,0.0125793,0.0325489,0.00773913,-0.0077028,-0.0259366
0.000185499,-0.0280188,0.0188366,0.00993252,0.0103192,-0.0132013
-0.0255554,-0.0323217,-0.00900974,-0.0116938,-0.000518382,0.0104861
0.0769933,0.0488477,0.0271752,0.0109982,0.00945303,0.0170677
-0.0201975,0.00292906,-0.00708268,-0.0124587,-0.00938815,-0.0067929
0.0525814,0.00937711,0.0465704,-0.00518477,0.00603065,0.000508845
-0.0428137,-0.0558674,-0.0420426,0.00704509,0.00279114,0.003371
-0.0258802,-0.0174644,-0.0646655,0.00213468,-0.0045017,0.00643808
-0.0468713,-0.0301714,-0.0101716,0.00170964,-0.0216409,-0.00872815
0.00472777,-0.0172598,0.0647269,0.0174065,-0.00200912,-0.0137057
-0.061514,-0.0813454,0.0403215,-0.0131983,0.00268781,-0.00952661
0.0142952,-0.0364984,0.062751,0.00933117,0.0269717,0.01976
0.0117121,-0.00779229,-0.0154401,-0.020535,0.0143441,0.00367922
-0.02042,-0.00781679,-0.0433399,-0.00540835,0.00617123,0.00454611
0.0256429,0.0349415,-0.00604837,-0.00829506,-0.0100207,0.00773364
0.0342565,0.047778,0.00778982,-0.00204301,-0.00212842,-0.00250489
0.0662838,0.0296149,0.0197812,0.00476784,0.000425071,-0.00668204
0.0608805,0.0189163,0.00807769,0.00834227,0.00330868,0.00674587
0.0363321,0.0135836,0.00160748,0.00322121,-0.00576726,0.00284034
0.0493678,0.0264625,0.0421751,-0.00432968,-0.00263202,-0.010788
0.0522646,-0.0110089,-0.0045823,0.0103599,0.0181913,0.00216484
0.00300398,-0.0302679,-0.0441761,-0.00412703,-0.0102892,0.00978202
-0.00269139,0.0105256,0.0687944,-0.00487494,-0.00410756,0.0126252
-0.0321312,-0.0142137,-0.0412048,-0.00454605,0.0164534,-0.00768173
-0.0847929,-0.00789766,-0.117303,-0.000759184,-0.0177487,0.00960904
-0.00342296,0.0779102,0.118572,0.00626564,-0.013497,-0.00750703
-0.0244457,-0.0205612,-0.00267115,0.0145633,0.0120873,-0.0385485
0.0448166,-0.0921713,0.00446404,-0.0210227,-0.00692266,-0.0258603
0.0328431,-0.0858269,-0.038362,0.00863636,0.00504258,0.0276594
0.164991,0.0436243,0.132246,-0.019714,-0.00453585,0.0185104
0.169924,0.0349611,0.0671449,-0.00644821,0.0436719,-0.00941682
0.0696361,0.0250744,-0.131897,-0.00508106,0.00221428,0.0257092
0.102526,0.084062,0.0174269,0.00524497,-0.00913084,0.00443465
-0.021455,-0.0967657,-0.208377,0.0192844,-0.025955,-0.0424366
0.0736551,-0.158391,0.0220964,-0.00715226,-0.0429118,-0.00832456
-0.00643618,-0.118554,0.166848,-0.0182094,-0.0168881,0.0621732
-0.100927,0.00519821,0.0342712,-0.0153239,0.0116512,0.0338779
-0.119138,0.0927626,0.0101295,-0.026453,-0.00705755,-0.00197631
-0.304097,0.0756308,-0.093023,0.0395327,-0.0182333,0.0130242
-0.0312326,0.134505,0.0956648,-0.0198,-0.0346691,-0.0313469
-0.220476,-0.0457275,0.1816,0.0110238,0.0199223,-0.0292565
-0.203907,-0.055804,-0.0757693,0.00848961,0.0236169,0.0129128
0.133297,0.0896532,0.173498,-0.0208945,0.0484754,-0.0102795
0.18124,0.0818277,-0.0047021,0.0166941,0.0647839,-0.0351
-0.0322131,-0.0850394,-0.226657,0.00122869,0.00551248,-0.0345634
0.0755023,-0.0869166,-0.031783,-0.0104246,-0.0313967,0.0283901
0.0692667,0.0113941,-0.0142809,0.00743252,-0.0180571,0.0451966
0.0107073,-0.00136582,-0.00586896,0.00281775,-0.0282693,0.00209677
-0.0861129,-0.00872679,0.0183889,-0.00111306,-0.0116867,-0.0194563
-0.0729864,-0.00650261,0.0750544,-0.00342864,0.00503731,-0.00590694
-0.070175,-0.0354536,0.013281,-0.00597316,0.0198266,-0.008075
-0.0501536,-0.0483508,-0.0228871,0.000691295,0.0167235,0.0144454
0.113036,0.0220652,-0.00136387,-0.00927627,0.0228479,-0.00448281
0.0688433,-0.0175666,-0.0824752,0.0113128,0.0199642,-0.00839061
-0.00920412,-0.0464223,-0.12425,-0.0103177,-0.0100419,0.0301569
0.00552732,0.0549765,-0.164386,0.0226099,-0.0367731,0.042487
-0.0159353,0.118274,-0.0174296,0.00880754,-0.0673887,-0.00478214
-0.0617411,0.0363838,0.169909,0.0251971,-0.0310685,-0.0458337
-0.0639243,-0.0682977,0.17058,-0.00485396,0.0113781,-0.0333188
-0.0411304,-0.0727759,0.0627797,-0.00238222,0.0360143,0.0185004
-0.00835358,0.00616006,0.0132417,-0.0152612,0.0304015,0.0301196
0.0168858,0.0423565,-0.0456621,-0.0116782,0.0248034,0.00373018
0.00354403,0.030455,-0.13752,-0.000207484,-0.0020285,-0.00813234
-0.118697,-0.0174276,-0.0842473,0.00424844,-0.0318284,-0.00979739
0.0262522,0.0522081,0.0942757,0.0051927,-0.0193144,0.00556582
-0.0871319,-0.0567751,0.0304515,0.0241444,0.00787649,-0.00997829
0.0916392,-0.0345499,-0.010693,-0.0102716,0.0125175,-0.00362396
0.113001,-0.0334827,-0.00207255,0.00224024,0.0193922,0.00665623
0.0300129,-0.0429961,0.0190459,-0.0344034,0.0176246,0.00403076
-0.245073,-0.0132485,-0.192662,0.00482565,0.000695616,0.0441294
0.0314513,0.127998,0.0660229,-0.00048691,-0.0136122,-0.000677943
-0.0690995,-0.0151582,0.0131524,0.0175073,0.00232226,-0.0530972
0.0132633,-0.033284,0.0680693,-0.0031004,-0.0060429,-0.0314789
0.0322538,-0.04083,0.0372047,0.0147451,0.00774446,0.00309151
0.0782075,-0.0119881,0.0574912,-0.0155045,0.00488713,0.0143951
0.0117423,0.014646,-0.0123816,-0.00397229,0.0265326,0.029418
0.249959,0.0869585,-0.0952968,0.0225913,0.0330573,-0.0131033
-0.307507,-0.0924221,-0.291747,0.0328773,-0.0594158,0.0309379
0.278075,0.063872,0.153908,-0.0363066,-0.0213762,-0.013595
-0.202073,-0.0780087,0.0547306,0.0193076,-0.0300775,0.0267662
-0.014217,0.25762,0.257333,-0.0428702,-0.0331558,0.0220897
0.0528691,-0.0161725,0.0969554,0.0057556,-0.00642389,-0.011396
-0.00451494,0.0284624,-0.0595435,-0.015159,0.0224968,-0.0158045
-0.00848567,0.0616595,-0.0138299,-0.00350213,0.0323303,-0.0390613
-0.072957,-0.046322,-0.0945728,0.0117511,-0.00344121,-0.00605726
-0.0450498,-0.00997018,-0.0637188,-0.00655746,-0.0177495,0.0131918
-0.0029967,0.0264577,0.0163347,-0.00240463,-0.00314856,-0.0114025
0.00149876,-0.00551884,0.0582289,0.00789452,0.0156131,-0.0294137
0.0437465,-0.0622652,0.00105756,0.0103299,0.0257258,-0.0286507
0.15034,-0.0847624,0.0101506,-0.00809008,0.0351807,-0.0290914
0.0496019,-0.141463,-0.081744,-0.0236934,0.0269677,0.00347519
0.123925,-0.0689694,-0.132152,-0.00921136,0.0115716,0.0301268
0.000661522,0.263382,-0.105921,-0.00338429,-0.0798729,0.00666779
0.130215,0.058094,-0.160735,0.0139768,-0.0807239,0.0322777
0.00429589,0.0135869,-0.0102651,0.024283,-0.0383007,0.000148296
-0.0358902,0.0339992,0.0385995,0.00775999,-0.0259567,0.0226525
-0.0494885,0.00417813,0.0836176,0.0142071,-0.0181755,0.0368954
0.035436,-0.0953063,0.0397062,0.00159788,-0.00807112,-0.00882626
-0.020133,0.0168322,0.00244373,0.0124182,0.0106128,0.01035
0.126084,0.0488348,0.0401774,0.0118641,-7.26581e-05,-0.00700551
0.137739,0.0434658,0.0295725,0.0149099,-0.0118899,-0.00545633
0.0294672,0.0255112,0.0998009,0.00877696,-0.0183302,-0.00734794
0.037806,0.175287,0.233487,-0.0208434,0.0209696,0.0315095
0.0394789,0.140975,0.159993,-0.0114953,0.0289744,0.0324321
-0.0843904,0.0178536,-0.052295,0.000137687,0.00796014,-0.00144941
-0.0970623,0.0040123,-0.0319527,-0.00470412,-0.0136494,-0.00573975
0.0380383,0.0938728,0.101527,-7.98702e-06,0.0279432,-0.0168151
-0.0950898,-0.00671642,-0.0575175,0.0207832,0.0365819,-0.00713658
0.0901106,0.0240592,-0.0933517,0.00436968,0.0126024,-0.0339588
-0.0734829,-0.113761,-0.17641,0.00665039,-0.0161544,-0.0244396
-0.0651911,-0.0836189,-0.0398119,-0.0105323,-0.0360222,0.016036
0.00156098,-0.00870425,0.0689331,-0.0173863,-0.0157693,0.00587207
-0.14043,-0.0353803,0.0247703,-0.00310236,0.011181,0.0152222
-0.0157767,0.0264695,0.0173546,-0.011336,-0.000826359,0.0041272
-0.078587,0.0105119,0.0279083,-0.00250775,0.0192806,-0.00836849
0.0117987,0.0253432,-0.00390382,-0.00768781,0.0217487,-0.0166458
-0.0503839,-0.00996756,-0.0648083,-0.000691056,0.0181139,-0.000886798
-0.0055576,0.0103134,-0.0540879,0.00129378,-0.00476834,0.000329912
0.0043278,0.000779982,-0.00377176,0.00185049,-0.0114824,-0.00242364
-0.0149115,-0.0419442,-0.00997822,0.0156094,0.00704816,-0.0140176
0.0737758,-0.0312578,0.0308857,-0.00241381,0.0089283,-0.0229888
-0.0276828,-0.101741,-0.00215747,-0.00118738,0.00620592,-0.0107701
-0.0513242,-0.0921693,-0.036499,-0.002123,0.00848407,0.0231037
-0.0242972,-0.0173128,0.0218808,-0.0109358,-0.0154036,0.023415
-0.0134801,0.0254483,0.0451491,-0.0109923,-0.00374705,0.00420266
0.0540597,0.0297894,0.113756,0.00852305,0.0264046,-0.0267444
0.028801,-0.0291536,-0.00669101,-0.0106227,0.0445268,-0.0198498
0.142285,-0.0496855,-0.0926778,-0.0129627,0.0259453,0.00727504
0.0110449,-0.217321,-0.108111,0.0116218,-0.0195025,-0.0274539
0.148861,-0.0154591,-0.0650965,-0.0155189,0.00453115,-0.0172936
0.126627,0.0390696,-0.0463023,-0.011341,-0.00314152,0.0101315
0.125704,0.0294988,-0.0216678,0.00329947,-0.00399107,0.0258923
0.0367894,-0.0784463,-0.0918168,0.0143663,-0.0218428,-0.000419617
-0.0795715,0.0102254,-0.136636,0.0153092,-0.0440351,0.00694227
-0.157958,0.0275068,-0.0611791,0.00899029,-0.067431,0.0240695
-0.0511169,0.141036,0.155377,0.0147613,-0.0374573,0.00377387
-0.14773,0.073924,0.219558,0.0353445,-0.00312304,-0.000618696
-0.366529,-0.0523585,-0.00909099,-0.0241367,0.00778919,0.0173721
-0.00328994,0.101447,0.138719,0.0061878,0.0321887,0.0254971
0.00882696,0.155711,0.0219518,0.00947481,0.0238283,-0.0121629
2.35452e-05,0.0445608,-0.0147569,1.17421e-05,-0.00705105,-0.0386656
-0.00380669,-0.0119157,0.0625224,0.00636303,0.00131428,-0.0212262
0.0963085,-0.114536,0.0646311,-0.01618,0.0096103,0.00899482
-0.025962,-0.0655485,-0.0739731,0.000439525,0.0251179,0.00642872
-0.0110952,-0.000423589,-0.0882306,-0.000723004,-0.0115555,0.014034
-0.000987025,0.0392369,-0.00510899,0.0106698,-0.0199568,-0.000946701
-0.00711357,0.0361165,0.0397608,0.0221583,-0.0180471,-0.0324612
-0.0282488,-0.035376,0.0754061,0.00570452,-0.00944683,-0.0197271
-0.0216537,-0.0534787,0.110807,-0.00573212,0.0105547,0.00263703
-0.011105,-0.0236121,0.0903513,-0.00852239,0.038188,0.00410312
0.0630742,0.00398172,0.0199331,-0.00414193,0.0493235,-0.00769562
0.0442784,-0.0175642,-0.0921848,-0.00398934,0.0300792,-0.00899214
0.39337,0.0845869,-0.167398,0.00831383,0.0102046,0.000744343
-0.0836167,-0.0164099,-0.0980126,-0.00793457,-0.0349194,0.0261949
-0.0683398,-0.000294914,-0.0392967,0.017122,-0.00975502,-0.00960374
0.0182926,-0.00346936,0.0155396,-0.00378942,-0.00566167,-0.0288488
0.091357,0.0628719,0.111544,-0.00178778,0.0057773,0.0149639
-0.0105412,0.0339145,0.00129996,0.0106214,0.0291138,0.0145621
-0.0761005,0.0220514,-0.0918245,-0.0241335,-0.00544918,0.00792831
-0.0224416,0.0840691,-0.0332608,0.0123348,-0.00385717,0.00886476
0.0054193,0.0787543,-0.00641168,0.00416142,-0.0167554,-0.0261627
0.0365436,0.00189642,0.0380121,0.0107977,0.00307956,-0.0382389
-0.00310217,-0.082513,0.00849324,0.00732619,0.0064463,-0.00227988
0.0148339,-0.0419927,-0.0248248,-0.000691891,0.00213575,0.0226538
0.00326167,-0.000287058,-0.00376959,-0.00021112,-0.00980452,0.0180079
0.024715,0.0168274,0.0186367,0.00139159,-0.0118502,0.00146073
-0.0222705,-0.0216171,0.00482127,0.001665,-0.00174913,0.0001055
0.00339851,-0.00772314,0.0197844,-0.0044713,-0.000661284,0.0013184
-0.0190831,-0.00132898,0.00149536,-0.00458413,-0.000312537,0.00832283
-0.0126461,0.0221754,0.00671025,-0.00197536,-0.000591576,0.00865757
-0.0179035,0.0350164,0.0172917,-0.0014593,-0.000667036,0.00445682
-0.0178668,0.0446398,0.0225708,0.00072974,0.00193787,-0.00485516
0.0162792,0.0403565,0.0312738,-0.00515497,0.00847656,-0.0186041
-0.0105952,-0.00988944,-0.0037613,0.00194299,0.011535,-0.00621223
0.00636083,-0.00352218,-0.0197634,-0.000358164,0.00575575,0.00839663
0.0181313,0.00609543,-0.0123017,0.00502288,-0.00274366,-0.00546128
0.00541462,-0.0205753,0.00171283,0.000346482,-0.003254,-0.0102625
0.0310767,-0.0205677,0.0167657,-0.000746548,0.00338474,-0.0046829
0.0192852,-0.0216483,0.00497706,-0.0019486,0.00652015,0.0012511
0.0148872,-0.0120723,-0.0186074,-0.00764918,0.00439918,0.0043354
0.000977756,0.000737948,-0.0294275,-0.0048095,-0.00617504,0.00482017
0.0161417,0.00827563,0.0111801,0.0121493,0.000481725,-0.00137854
-0.0277443,-0.0451518,-0.0174856,-0.00544959,-0.0021041,-0.0095793
-0.0244864,-0.03766,-0.00790609,3.48091e-05,-0.00238425,0.0176365
-0.00303455,0.0146985,0.0110681,-0.00299317,0.00100404,0.0152475
-0.00845216,0.0136078,-0.0039026,-0.00518423,0.00731134,-0.00807601
-0.0160421,-0.0184649,-0.0229574,0.00491458,0.00722411,-0.0151589
-0.0235778,-0.0451842,-0.0334939,0.00897729,0.00320047,-0.00459403
-0.0226131,-0.0676424,-0.0483046,-0.00790143,-0.0117344,-0.00449795
0.0106611,-0.0419627,-0.00988377,-0.00474262,-0.0103809,0.00453007
0.0259478,0.0061949,0.0475587,-0.0127847,0.00655612,-0.00272161
-0.026617,-0.0237738,-0.00907246,-0.0239595,0.0287817,-0.0193457
-0.159192,-0.113833,-0.254727,0.0456491,0.00146359,0.0209516
0.056819,-0.0141303,0.0446022,-0.0244902,-0.042685,-0.0101937
0.0895538,-0.00965655,0.172907,0.0219316,0.0124773,-0.0118679
0.0381771,-0.0986454,-0.0361223,-0.00301296,0.0111565,-0.0175225
0.0561894,-0.084804,-0.0543086,-0.00536472,-0.0163322,0.0321528
0.0266798,0.0424107,-0.0114393,-0.000159442,-0.0149692,0.0467021
0.0648513,0.136625,0.126993,-0.0243752,-0.0257886,0.0224109
0.00723551,0.109944,0.116267,0.0503445,0.00331098,-0.00611293
0.164446,0.220761,0.0253167,-0.0256781,0.0244109,0.00404322
-0.0382309,0.0331831,0.181768,0.000256777,0.000550508,-0.0117159
0.0580915,-0.0984445,0.0868206,0.0121912,0.0265917,-0.02969
0.00427443,-0.0675894,-0.00653533,0.00344211,0.0259537,-0.0105677
-0.136789,-0.0850053,-0.252692,-0.00880218,-0.00533599,0.028215
-0.00640528,0.0242622,-0.0189227,0.0122642,-0.0636577,0.0435691
-0.00453373,0.086755,0.288391,-0.0176951,-0.0163802,-0.0196102
-0.0904359,0.0193389,0.183801,0.0232942,0.0287467,-0.0224205
0.0721288,-0.0471352,0.113252,-0.00581938,0.0257483,-0.00651616
-0.0473592,-0.0502932,0.0882511,-0.0122819,0.0389827,0.00700712
0.0259201,0.0019144,0.0433131,-0.0282754,0.050054,0.0118907
-0.0607723,-0.0475737,-0.194956,0.0064497,0.0287357,-0.0233421
-0.193879,-0.104366,-0.354286,0.0196037,-0.0370983,0.0411113
0.142671,0.0682236,0.139479,-0.0402533,-0.00537252,-0.0159858
-0.089928,-0.0441492,-0.0818317,0.0208285,0.00340804,0.00160903
0.0599762,0.00935265,0.0359143,-0.00288945,-0.00326803,-0.0322525
0.110234,-0.0696666,0.0729394,0.00325435,0.0246356,-0.0304373
-0.012911,-0.0729567,-0.0290023,-0.0121039,0.00517291,0.0195484
0.157755,0.0455205,-0.00883126,0.00721979,0.018665,0.0102021
-0.0612475,-0.0519839,-0.273995,-0.0107265,-0.0309573,0.0390245
-0.0414222,0.0891701,-0.178674,-0.00510085,-0.0529721,0.0423332
0.061425,0.176079,0.0850533,0.0121151,-0.0571671,-0.0099709
0.148459,0.093987,0.214125,-0.00110906,-0.0277597,-0.0161164
0.103015,0.150736,0.271283,0.023168,0.0123674,-0.000154376
0.191372,0.127149,0.260015,-0.0178128,0.0663507,-0.0131623
0.134351,0.0968157,-0.00711572,0.00924742,0.0513588,-0.0101587
-0.000182933,0.031373,-0.226226,-0.0110352,0.00627697,-0.00195301
-0.0102348,-0.00155224,-0.12241,-0.000588536,-0.0031046,0.00399321
-0.00709186,0.0187218,-0.133213,0.00140333,-0.0179483,0.00835317
0.0275302,0.0209863,-0.0454874,0.0176256,-0.0109712,-0.0125285
0.030568,-0.0410086,-0.066443,0.0190319,-0.0222953,-0.0213056
0.0281724,-0.0493163,0.0682251,-0.000941634,-0.0036321,-0.0147966
-0.0656608,-0.0546059,0.0572242,0.010363,0.00790855,0.0160268
0.0707139,0.0211182,0.0486973,-0.0250916,0.00546083,-0.00863481
0.0219375,-0.00120403,0.0903281,-0.00559664,0.0223189,-0.00180966
-0.149104,-0.0763131,-0.1748,0.0195593,0.0125621,-0.00157571
-0.204938,-0.111641,-0.24316,-0.0343427,-0.0427334,0.00478739
-0.235807,-0.0376024,-0.066394,-0.0456704,-0.035149,0.0414839
-0.0652943,0.14202,0.100826,0.0176104,-0.0330491,0.050845
0.0289562,0.199008,0.3551,0.0326182,0.015144,-0.02101
-0.446426,0.441452,0.127374,0.0306615,-0.140797,0.000474453
-0.582267,-0.344541,-0.423631,-0.107307,0.0563321,-0.083604
0.00379043,-0.144317,0.0975987,0.0293855,0.098417,-0.0194757
0.670493,0.0049263,0.211314,-0.0577844,0.0633163,-0.00373942
0.50704,0.063354,-0.0439655,0.0453891,0.0307319,0.0647895
