rotation_x,rotation_y,rotation_z,acceleration_x,acceleration_y,acceleration_z
0.0695045,-0.0451294,0.0309345,-0.00807258,0.0246988,-0.0428865
0.118532,-0.27586,0.0539848,0.0262562,-0.0492633,-0.00506926
0.300385,0.0649181,0.143272,0.0210563,-0.00981548,0.0258775
0.0556266,-0.071828,0.0289196,-0.000677984,0.0369675,-0.0155702
-0.0436084,-0.135877,0.0107992,-0.0111333,0.00250041,0.0405666
-0.0279733,-0.0644314,-0.0537127,0.0128364,0.0133182,0.00659955
-0.0004043,-0.0783756,-0.0748888,0.0280729,-0.00150892,-0.0157573
0.0271575,-0.00474461,-0.105177,0.0113892,-0.0252068,0.00881529
0.0407861,0.060331,-0.148287,-0.0367621,-0.019735,0.0311105
0.0214969,0.0581773,-0.166509,-0.0130165,0.0117959,-0.0150665
-0.0528012,-0.0794585,-0.106064,0.029154,-0.00554246,-0.00851315
0.0325238,0.0219653,-0.101059,0.0205838,-0.00552005,0.00163788
0.00937421,-0.00783827,-0.0496647,0.0510571,-0.0124276,0.0142059
-0.00513689,0.051034,0.0129368,0.0261356,-0.0161633,0.019039
0.0101247,0.0746197,0.068401,0.00192411,0.000368953,0.00302052
0.00577679,0.0692577,0.0545296,0.0150887,0.00605068,-0.00139374
-0.0101045,0.0425985,0.0738748,0.00405761,-5.16176e-05,-0.007734
-0.0260715,0.0233905,0.0782132,0.0209363,0.00967592,-0.00979489
-0.0443224,0.0436571,0.0534387,0.0162048,-0.0127622,0.027463
-0.0208807,0.120538,0.0466171,0.00615578,-0.00441796,0.00568837
-0.093056,0.0811565,0.0968207,0.0154658,-0.0108293,0.0108845
-0.0503831,0.0950239,0.10437,-0.00397601,-0.0113,-0.00787222
-0.0377545,0.0607919,0.0811319,-0.00715865,0.00309506,-0.0179202
-0.0134288,0.00411373,0.0559494,-0.00293469,0.0105676,-0.0136768
-0.00177637,0.0468079,0.0407551,-0.000599314,-0.00545597,0.0129818
-0.0261147,0.0650319,0.0672575,0.0159285,0.0120841,-0.009238
0.0215004,0.0360605,0.0142035,0.00650132,0.00650632,-0.0300316
0.00885626,-0.0119501,0.0422469,0.0123326,-0.00725433,-0.0144315
0.0214977,-0.0205462,0.018844,0.00968571,0.00512928,-0.00199717
0.018276,0.00615025,0.0122473,0.00511656,0.0092881,0.00666523
0.0289329,0.00934719,0.0122658,0.00889622,0.0131927,-0.01279
0.0203959,-0.00346696,0.0112492,0.00211546,-0.008735,-0.00811118
-0.0179088,-0.00983094,0.0207638,0.00834929,-0.00464311,0.00446939
0.0151097,0.0285907,0.0152945,0.00539811,0.00594237,0.00257462
0.00545617,0.0157621,0.0057269,0.00429376,-0.00361225,-0.00474173
0.00435011,-0.00133723,0.000490816,0.00794876,-0.00502202,-0.000679493
0.00650884,0.00294154,0.00474466,0.007647,-0.0134682,0.00657344
-0.00305472,0.00402376,0.00897696,0.00645795,-0.00224751,0.00478995
-0.00627154,0.0147006,0.00462199,-0.000592662,-0.00192317,0.00406897
-0.0223287,-0.00560064,-0.00599335,0.00538759,0.00167361,-0.00165731
-0.0105519,0.016835,0.00138583,0.00668209,0.00343254,-0.00217849
-0.00631003,0.0018737,-0.000638839,0.00856816,-0.00412846,-0.00579023
-0.00949845,0.00508156,0.000398957,0.00537127,-0.00675154,0.0012762
0.000148131,0.00402393,0.0100559,0.0069839,0.000525206,-0.00339198
-0.0180323,-0.00132276,-0.000660582,0.0101591,-0.00106645,0.00696158
0.0246011,-0.00241914,0.00164296,0.00864353,-0.00333592,-0.00652426
0.0150922,-0.00666005,0.0155237,0.000615075,-0.000223488,-0.0104764
0.0108088,0.00188107,0.0111789,-0.00224409,-0.00406179,-0.00172168
0.00220894,0.00400152,-0.00168852,0.00283601,0.000231713,0.00395805
-0.0149071,-0.00348245,-0.012387,0.00113388,-0.00415042,-0.00208241
-0.0138438,-0.00775541,-0.0123566,0.00231597,-0.00390598,-0.00217378
-0.00317729,-0.0109642,-0.0101591,0.00526978,-0.00403795,-0.00154042
0.0203177,0.00612233,-0.00270264,0.0100286,0.0019331,-0.00158995
0.0054629,0.0296497,0.00563469,0.00257645,-0.00384304,0.00513637
-0.0507303,0.0137514,0.0536109,-0.00200272,-0.0240522,0.00675356
0.119116,0.0746278,0.120094,-0.101173,-0.0423447,-0.0558687
0.26562,0.0996815,-0.149837,-0.11175,0.0360033,-0.0493212
0.41148,0.186805,-0.354998,-0.0876061,0.0637532,-0.00165725
0.522885,0.360673,-0.449732,-0.0781062,0.02463,0.0356244
0.934342,0.677308,-0.627607,-0.00179099,0.127044,0.075525
0.383408,0.270026,-0.424024,0.0694129,0.00637645,-0.0458044
0.135552,-0.0447389,-0.327819,0.0653687,0.0135965,-0.0266191
-0.0709739,-0.232504,-0.280362,0.0461898,0.023552,0.0382996
-0.0568769,-0.189722,-0.24319,0.0577274,-0.0249128,0.0112637
0.0246877,-0.12019,-0.151449,0.0539123,-0.02825,0.00268584
0.0867323,-0.118028,-0.110631,0.0633959,-0.0147476,0.0100563
0.0679692,-0.0773063,-0.0447233,0.0585636,-0.0200075,0.0255494
0.10008,-0.00466285,-0.0269074,0.0216129,-0.00984347,0.0158182
0.00995621,0.00621691,0.0464048,0.0173542,0.0032357,0.0165329
-0.0391594,0.00836,0.0291123,0.0235028,0.000966311,0.0035612
0.00563559,0.00406646,0.0367876,-0.00144687,-0.0147444,-0.00059104
0.0524627,0.00614989,0.0273355,-0.00547957,0.00742686,0.00411206
0.0244872,-0.0131328,-0.0164515,-0.0137575,0.0107402,0.0116319
-0.0362968,-0.0205764,-0.0241128,-0.00346744,0.00420696,0.0094049
-0.0117555,-0.00349652,-0.0198571,0.00664398,-0.00338978,-0.00508571
-0.0255018,-0.00986387,-0.00170313,-0.00469118,-0.00140488,-0.00746065
0.00635869,-0.0291437,-0.0174847,0.0127642,0.00293207,-0.0245717
0.0160428,-0.0579607,0.000902503,0.0150961,-0.0273712,0.018752
0.0164301,0.0137103,0.059205,0.00661477,0.00358933,0.0149143
0.0129783,0.0403398,0.0141436,-0.00679412,0.0123911,-0.00387317
-0.0263933,-0.0322407,0.0294228,0.00629139,0.0144926,-0.0174553
0.00439378,-0.04191,0.0114385,0.00809559,-0.00748235,-0.00505096
0.00449725,-0.0141115,0.0262185,-0.00378877,-0.00919592,0.0137833
-0.0231668,0.00194245,0.031351,0.00192142,0.00721645,0.00109708
0.132247,0.0391613,0.00284551,0.0247673,0.0145393,-0.0332086
-0.0796984,-0.102701,0.0307505,-0.00322178,-0.0344802,0.00296795
-0.0404548,-0.068606,-0.00244498,-0.00710152,0.0165671,0.0222226
-0.0980547,-0.0247911,-0.0168348,0.00144556,-0.000735462,0.0259843
-0.0680304,0.0350526,0.00959961,0.0107102,-0.00799972,0.00310445
-0.00621647,0.0232627,0.0131107,0.0170751,-0.0098421,-0.0228442
-0.0306445,-0.0108749,0.0292712,0.000591964,-0.0130682,0.00490451
-0.00400482,0.0179436,0.0270451,-0.00593884,0.000900388,0.00666475
-0.00208241,0.00933601,-0.00708066,-0.00592399,0.0119509,-0.00359577
-0.0659749,-0.0141012,0.00137919,0.00967862,-0.00930905,0.0191067
-0.376754,-0.0554173,0.0635215,0.0293556,0.0114846,0.0614828
-0.985034,-0.189493,0.0963022,0.0743914,0.0405255,0.104368
-1.27594,0.0459997,0.249681,0.026667,0.0491984,0.219683
-1.72768,0.712362,0.551382,0.0167765,0.0921524,0.2738
-2.18622,1.21596,0.623327,0.0667781,0.102366,0.0842284
-3.81402,1.65566,1.52363,0.0434954,0.0635538,0.0545192
-4.41569,1.59489,1.94274,0.236789,-0.00389445,0.242681
-1.81523,2.44371,1.61362,0.32108,0.107305,-0.100636
-1.19685,1.15637,1.79416,0.158993,0.0956039,-0.112143
-3.16044,0.326785,1.1789,0.0990272,0.267666,-0.143043
-1.74551,-0.191414,0.501615,0.00164425,0.446762,-0.122604
-0.585903,-0.284844,-0.502053,-0.0281425,0.324205,-0.0783547
-0.40822,-0.259288,-1.08172,0.00522065,0.158291,-0.0176443
0.0784916,-0.105925,-1.13324,0.0446473,0.021844,0.00459713
0.620736,0.0619425,-0.808565,0.0396599,-0.116342,0.019546
0.507948,0.100389,-0.251506,0.0359811,-0.189151,0.0375198
0.0720184,0.116566,0.258544,0.0462465,-0.169008,0.0536838
-0.0349022,0.180176,0.547281,0.0326871,-0.0971478,0.0321608
-0.0359078,0.19439,0.734164,0.0184025,-0.00839621,-0.0100514
-0.0353339,0.131232,0.657647,0.0279407,0.132041,-0.0712199
0.0192675,0.055881,0.351695,0.04404,0.116791,-0.0194528
-0.0471904,-0.268425,-0.0417752,0.0577425,0.142986,-0.0304929
-0.176304,-0.359032,-0.599401,-0.0270116,0.0468799,0.000372231
-0.216102,-0.443173,-0.476135,-0.0151446,-0.0431089,0.0481611
-0.172875,-0.220566,-0.216713,0.00345981,-0.0504511,0.0766437
-0.0726121,0.0093297,-0.0415364,0.0259625,-0.0905397,0.0554725
-0.0415811,0.110363,0.327609,-0.0395757,-0.0899515,0.0165948
-0.399877,0.098358,0.637262,-0.0373466,-0.0224954,0.0133398
-0.309054,-0.172162,0.526102,-0.00418997,0.0786251,0.033467
-0.78767,-0.090244,0.128453,-0.023844,0.172041,-0.0485787
0.121357,0.0305571,-0.0356047,-0.0142649,0.192415,0.0136895
-0.229986,0.168057,-0.358347,0.0266981,0.124485,0.0246626
0.460357,-0.0424548,-0.713395,0.0128272,-0.00940537,0.0934232
0.0467286,-0.054708,-0.569557,0.0283066,-0.0096989,-0.0314254
0.137382,-0.227151,-0.183458,0.0116696,-0.110229,-0.0413153
0.12307,-0.209563,0.0941717,0.0379215,-0.0845074,-0.0501416
-0.655445,-0.216031,0.334905,0.00246108,-0.0815542,-0.0189821
0.792627,0.503058,0.456399,-0.000107408,0.0335616,0.00138426
0.357928,0.515143,0.460035,-0.0506359,0.0648615,-0.0059551
-0.016988,-0.0725761,0.180372,0.0140883,0.0400746,0.0376949
-0.973479,0.0273943,-0.485227,0.0133218,0.149582,-0.065757
0.189328,-0.170661,-0.232779,-0.0126671,-0.0914464,-0.0486832
0.160821,-0.0658956,-0.198305,0.030014,-0.0401113,-0.0488743
-0.0913732,-0.0965814,-0.140285,0.0137032,-0.0368825,-0.00398606
-0.109638,-0.159314,0.0181829,-0.00700861,-0.0324778,0.00896883
-0.029676,-0.3719,0.0455043,-0.010159,-0.0234042,0.0213053
-0.289359,-0.115286,0.0727837,0.0230615,0.00223511,0.00701523
-0.0717146,0.143096,0.096498,-0.0260358,0.0165455,-0.017468
0.0203229,-0.412992,0.392134,-0.122821,-0.0423878,-0.0432224
0.0573818,-0.213676,0.15699,-0.110612,-0.00936612,-0.0375193
-0.0250634,-0.297039,0.097391,-0.182503,-0.0253462,-0.009884
0.0633879,-0.0418404,0.0768349,-0.0994423,0.0203268,-0.00684798
0.0564855,0.116086,-0.0225129,-0.0274565,0.0354159,-0.00484699
0.107909,0.173803,0.0189749,-0.00465786,0.0202809,-0.00758088
0.0487152,0.132021,-0.0760675,0.0141681,-0.00827593,0.00751841
0.050808,0.0551091,-0.0755601,-0.000679731,-0.0211809,-0.0157264
-0.0363819,-0.0633238,-0.0345183,0.00101632,-0.00882134,-0.00181293
-0.00286307,-0.0215527,0.0433327,-0.0103324,-0.0158805,0.0244184
-0.0303148,0.0223301,0.0814116,0.000891089,0.0110572,0.00427055
-0.0790711,0.107574,-0.0614276,-0.0100368,-0.00382593,9.26256e-05
-0.0333725,0.0220608,-0.0735218,0.0089758,-0.00143579,-0.020184
-0.042317,-0.0773828,-0.134881,-0.00690323,0.00805879,-0.0254015
-0.0248024,-0.125632,-0.230665,0.00922757,1.38879e-05,0.00232786
0.061776,-0.0996739,-0.00933885,-0.00040859,-0.00855765,0.0212732
-0.0900244,0.00634226,0.0759503,0.000505924,-0.0113122,-0.00418204
-0.0529013,-0.373957,0.08176,0.022177,-0.013991,-0.0256389
-0.0420894,-0.149631,0.087825,-0.0279306,0.037871,-0.0379239
-0.0083832,0.0403395,0.00551894,-0.0132279,0.0423877,0.0123366
-0.0939527,0.217603,-0.0654006,-0.0151793,0.0346262,-0.0210005
-0.011155,0.0882158,-0.10592,-0.00231171,0.00994971,0.0124673
0.0757196,0.084045,-0.0104776,0.00945187,0.00886932,-0.00556886
0.115032,0.034096,0.153467,0.0120863,-0.0305523,-0.0105711
-0.0264348,-0.0269155,0.0219148,0.00456041,-0.0241212,-0.0103059
0.0739375,-0.100623,0.0644378,0.0187968,0.0145015,0.00693583
-0.0271559,0.0233842,0.0750071,-0.0106162,0.00771281,0.0146443
0.0054948,-0.0226776,0.0155955,-0.0104085,0.0104031,0.0207578
-0.0433885,0.0735207,0.028679,-0.00959814,-0.00159961,0.00215095
0.00479695,0.150452,0.061484,-0.000176311,0.00664267,-0.0105133
-0.0122496,-0.0887742,0.0832691,0.0237066,-0.0125103,0.00537258
0.0165353,-0.147534,0.0912385,-0.0141484,-0.0289898,-0.032154
0.0236999,0.0446216,0.0248438,-0.0110437,0.037112,-0.0155129
-0.0949143,0.0926725,-0.0368128,0.000129819,0.0123354,0.0159568
0.0178369,0.0733072,-0.0672521,-0.0127906,4.72665e-05,0.0121545
0.0397502,0.0293656,-0.140607,0.0139544,0.00699326,-0.0134237
0.0567267,0.073432,0.0215764,0.00760543,-0.0180255,0.000613332
-0.013258,-0.0513765,0.0894358,0.00953412,-0.0132077,-0.00732905
-0.0664941,-0.00860282,0.0921637,-0.00540555,0.000489801,-0.00263888
-0.00601288,0.00729789,0.0484811,0.00209945,0.00259504,0.00804538
-0.493899,-0.0890462,-0.279665,0.0100609,0.029214,-0.0136623
-3.2992,-0.171159,-2.02373,0.0158197,0.193022,0.0759287
-4.75199,-0.0138279,-2.47787,-0.0384375,0.0600557,0.0048821
-2.98627,0.658998,-1.79716,0.0355508,0.119766,-0.0637299
-2.86246,1.23099,-1.45636,0.0696306,0.0713196,-0.0194266
-1.74032,1.51629,-0.921921,0.112527,0.0408785,0.0125246
-0.353085,1.22672,-0.369941,0.0998605,-0.0485832,-0.190375
-0.482605,-0.0810803,0.00453311,0.102098,-0.098138,-0.187908
-0.017878,0.461181,-0.0164753,0.0695365,-0.0398422,0.0431545
0.0931222,-0.552418,0.105907,-0.00793532,-0.101172,-0.232412
1.17098,-0.884141,0.240304,0.0747618,0.0641811,-0.0590496
1.55971,-1.18656,0.951034,0.07621,-0.183625,-0.0611629
3.47583,-1.56337,1.93187,0.0354757,-0.099053,-0.109186
7.09176,-0.0547291,3.68788,-0.0281063,0.370616,0.437589
7.24176,2.00365,3.10775,0.0332491,-0.327804,0.304196
-3.91665,1.04361,0.273932,0.192712,-0.0536763,-0.238167
-0.593595,-0.274675,-0.18588,-0.0229676,0.487515,-0.168381
-0.279647,-0.510613,-0.583843,0.00612652,0.0139946,-0.150105
-1.3642,-0.652739,-1.08381,0.00336015,0.0799988,0.0183336
0.24861,-0.428842,-0.630477,0.0209571,-0.0434056,0.0510713
-0.108711,0.0272365,-0.199912,-0.0245975,-0.184352,0.0749477
0.054898,0.227631,0.236397,0.0213174,-0.0722304,0.0783994
0.357855,0.389403,0.637148,-0.00435495,0.000585109,-0.00117588
0.871003,0.405221,0.742608,0.0499389,0.0594645,-0.0733083
0.399645,0.0745017,0.170298,0.0146625,0.0399038,-0.0740668
-0.497779,-0.281489,-0.376731,-0.002316,0.0246541,0.00259626
-0.621697,-0.24838,-0.432968,0.00299478,-0.0201676,0.0324721
-0.173103,-0.0398247,-0.0928729,-0.0348566,-0.0240641,0.0471709
-0.0789577,0.113257,0.135133,-0.0567234,-0.0539783,0.0567204
0.13659,0.145227,0.184883,0.0721421,0.029332,-0.000423551
-0.248097,-0.0879494,-0.156948,0.0484967,-0.00568438,-0.0443165
-0.0251573,0.000914161,0.0548618,-0.0379045,-0.016179,-0.0569912
0.149649,-0.0284814,0.424321,-0.0359569,0.0318735,-0.023876
0.370198,-0.0310993,0.244597,0.0237728,0.103824,-0.0169355
0.015972,-0.0817918,-0.186986,-0.0118587,0.0612046,0.0175654
0.202861,-0.0917315,-0.293069,-0.00711751,0.0261961,0.024048
0.0378176,-0.0563301,-0.277888,0.0254103,-0.017785,0.0829396
0.241518,0.106981,-0.26109,-0.0179006,-0.0274544,0.00282413
-0.225864,0.0259619,-0.369159,0.0014255,-0.1176,-0.000424743
-0.143193,0.158074,0.0801113,0.0250923,-0.0764735,-0.0321879
0.593641,0.235962,0.346272,0.0106994,-0.028701,-0.12561
0.122816,-0.264554,0.41293,-0.0560654,-0.0375073,-0.0552028
-1.07129,-0.161646,0.102213,-0.0307182,0.0534737,0.059108
0.604083,0.248396,0.131473,0.014946,0.14861,0.0536256
0.165727,0.291768,-0.301035,-0.0167413,0.0185262,0.0301026
0.293813,0.122988,-0.248178,0.0252373,0.023055,-0.00211442
0.0937652,0.103992,-0.201791,0.012258,-0.0206121,-0.0105544
0.198296,0.0359025,0.000979031,0.0484492,-0.0446356,-0.0135824
-0.0277204,-0.0323187,-0.0143831,-0.0233635,-0.0547516,-0.0136747
-0.146963,-0.0468412,0.180789,0.0254269,0.00467023,-0.0165151
-0.0767986,-0.0992748,0.158955,0.00145286,0.0104668,-0.00712854
0.0347155,-0.0179836,0.268896,-0.0430067,0.0323157,0.0110258
0.243865,-0.00737067,0.319828,-0.0414807,0.0822215,0.0301701
-0.142183,-0.337512,0.115381,-0.0363955,0.12749,0.053417
-0.0532917,0.0162083,-0.374862,0.0153851,0.117988,0.136316
0.0144409,0.291887,-0.298398,-0.0266389,-0.0299259,0.0570475
-0.0812293,0.104363,-0.0656881,0.0471854,-0.00458902,0.013119
-0.190342,0.103251,-0.137674,0.0313233,0.000894636,-0.0475007
-0.00989037,0.0519604,-0.0693545,0.0510763,-0.0423725,-0.0673845
0.0985393,0.076682,0.0644455,0.00654805,-0.0542845,-0.101336
-0.0490367,-0.0469449,0.164062,-0.00678009,-0.0551125,-0.0477784
0.125015,-0.405827,0.258926,0.0197967,0.0180588,-0.0389122
0.109546,-0.724876,-0.161099,0.0459396,0.11215,-0.0201385
-0.0429917,-0.504038,-0.387478,0.0148537,-0.133285,0.0212389
-0.891806,-0.231376,0.0103828,0.00855672,-0.128429,0.0384119
-0.343031,0.0286878,0.527881,-0.0712464,0.00914872,0.096371
0.0687566,0.0611873,0.96514,-0.0396835,0.0217155,0.0700619
0.441418,0.0282978,0.0329221,-0.0977497,0.307724,0.11711
0.0809235,0.207898,-0.0422483,-0.00994694,0.0784188,-0.0478839
0.173575,0.114271,-0.398155,0.0197046,0.0487541,-0.0758654
0.318294,0.059636,-0.425038,-0.0011394,-0.0172551,-0.0303888
0.178967,0.0227465,-0.200947,0.00384045,-0.0277362,0.00523329
-0.145668,-0.00147243,-0.141103,-0.0738455,-0.107437,0.101606
0.216507,0.202844,0.18053,0.0363609,0.036403,0.14645
0.443822,0.395781,0.0455064,-0.0430159,0.0121139,-0.0333436
0.247803,0.5035,-0.136495,0.0499227,0.010147,-0.0630295
0.269043,0.296264,-0.12973,0.0326345,-0.0575128,-0.0809957
-0.140538,-0.154263,-0.160396,0.0627993,-0.0770931,-0.0653203
-0.509039,-0.512797,-0.100686,0.0178257,-0.130881,0.0194509
-0.368527,-0.250339,0.387489,0.0100759,-0.00312302,-0.0440971
-0.108924,-0.0794483,0.486717,-0.0757504,0.00322586,0.0249775
0.0500011,-0.256816,0.530134,0.0253512,0.085348,0.0372663
0.17207,-0.0757883,0.25803,0.00535488,0.119558,-0.112872
0.687601,0.163324,0.385553,-0.100692,0.159327,-0.0955793
0.204683,-0.0527502,0.00798638,-0.0566673,0.19402,0.0868814
0.171691,-0.176784,-0.686894,-0.0121028,0.135679,0.175707
0.168403,0.219122,-0.915985,0.00110269,0.0583328,0.124039
0.65036,0.430643,-0.698657,0.0728378,-0.0524327,0.0780897
0.689745,0.360422,-0.520689,0.0612725,-0.132692,-0.0192468
0.00281178,0.062607,-0.0843349,0.0502088,-0.192482,-0.00613958
-0.203102,-0.123287,0.421473,0.011574,-0.108902,-0.0187662
-0.596091,-0.189912,0.636261,0.0372525,-0.039577,0.0502113
-0.179255,-0.0438411,0.660381,0.0220833,0.0877808,0.0342189
-0.227121,-0.0379962,0.317193,-0.0123045,0.106463,0.0259277
-0.122584,0.0457118,-0.0270007,-0.0191437,0.117429,-0.00428879
0.106809,0.017548,-0.150968,-0.0189977,0.0658134,-0.027758
0.187442,0.0160055,-0.386781,0.0027737,0.0317858,-0.0424471
0.207088,-0.0340704,-0.304112,-0.0142528,-0.0411187,-0.0276271
0.112921,-0.109636,-0.186446,0.0278888,-0.0647631,-0.0046761
0.0115573,-0.0540624,-0.214965,0.00867766,-0.0873865,0.00954282
-0.15093,-0.0278377,0.0502981,-0.0120937,-0.0978872,0.0139008
-0.168868,0.0526413,0.250578,0.00787699,-0.0494414,-0.0151166
-0.10793,0.075084,0.282714,0.0242343,-0.00854817,-0.0489455
-0.0970001,-0.0629329,0.162916,-0.0135664,0.0193697,-0.0620474
-0.319261,-0.147325,0.064333,0.00597513,0.0357545,-0.0135478
-0.163493,-0.101769,-0.0838943,-0.0101668,0.0378426,0.00556684
-0.200883,-0.0515713,-0.104661,-0.0253948,0.0103361,0.0168418
-0.151838,-0.0409185,-0.100273,0.00659776,0.000158966,0.0103175
-0.17011,-0.0633797,-0.12477,0.00237834,-0.0116747,-0.00250888
-0.181178,-0.0738619,-0.0146911,0.00527471,-0.0181186,0.0120215
-0.096324,-0.0235294,0.0942813,0.00063473,-0.00705972,0.0198033
-0.0864653,0.0416923,0.133428,0.00198877,0.0170887,0.0199758
-0.0831581,0.135711,0.143513,-0.0119197,0.0353379,-0.0177515
0.150001,0.198493,0.106584,-0.00238216,0.0941856,0.0207646
-0.0814815,-0.00358077,-0.0981142,-0.0373405,0.0160955,-0.00215983
0.257746,-0.481135,0.0109615,0.0105008,0.032346,0.102805
0.061475,-0.0268215,0.111987,-0.0092324,0.00453728,-0.0594401
0.441965,0.0882694,0.119076,0.0779155,0.0112084,0.0354259
2.16066,0.0952097,-0.0551003,-0.0513203,0.0116003,0.0709869
-0.893745,0.352277,-0.366301,0.0217576,-0.171326,-0.00874007
-0.936646,0.0164193,-0.0266555,0.00336254,0.0318266,-0.0890443
-0.755489,-0.308395,0.00604579,-0.0208452,0.0452033,-0.128402
-2.09752,-0.394679,-0.436484,0.0178794,0.184076,-0.0589231
-0.449185,0.136535,-1.37506,0.0574865,0.171449,0.320689
0.751592,0.162314,-1.38569,0.0778172,-0.186991,0.101816
0.50174,0.617068,-0.445065,0.0646689,-0.2325,-0.0263966
2.05587,0.862968,0.348744,0.0847431,-0.147329,-0.0410023
0.801729,0.226598,0.577891,0.156352,-0.250623,-0.0740378
-1.54243,-0.730428,0.834951,0.0406336,-0.164888,-0.0764883
-1.29213,-0.957203,1.37372,-0.0356474,-0.0688518,-0.0456156
-1.85122,-0.908317,1.59889,-0.00849026,0.0187008,0.0960779
-1.20092,-0.579622,1.09061,0.0136304,0.274188,0.173485
0.320005,0.188168,0.384015,-0.0610064,0.316789,0.175779
0.575017,0.433239,-0.469241,-0.070568,0.284196,0.0893209
0.785213,0.461512,-1.31378,0.0421441,0.255566,0.0128493
1.21756,0.469791,-1.89025,0.0936546,0.0994245,0.0230622
0.552119,0.546716,-2.16996,0.09004,0.0312656,0.0973617
-0.324245,0.673567,-2.08966,0.0503531,-0.0768467,0.0957214
-0.262993,0.645014,-1.28791,0.0909493,-0.108941,0.0817888
0.00688125,0.639112,-0.880851,0.0941073,-0.0594543,0.0224342
-0.676687,0.648316,-0.80013,0.122255,-0.121609,0.0124955
-0.411312,0.376097,-0.58689,0.0851929,-0.0828286,-0.0573453
0.509886,0.149462,-0.288146,0.108633,0.0448794,-0.123803
0.0104988,-0.0903706,-0.210465,0.0108779,-0.0816614,-0.0160913
-0.1008,-0.179833,-0.105592,-0.0189497,-0.0299578,-0.0344061
-0.318177,-0.450198,-0.261714,0.0287968,-0.0109007,-0.00290227
-0.0674562,-0.459905,-0.206221,0.0606412,-0.0403378,0.00769424
0.00973644,-0.430986,-0.129193,0.0359947,-0.017547,-0.0198375
-0.071114,-0.439431,-0.107004,0.00317332,0.0461493,-0.0143757
0.0518106,-0.195141,-0.241684,-0.039142,0.100456,0.00333273
-0.448193,0.0936581,-0.8491,-0.0431035,0.0976286,0.0326596
0.18326,-0.0119125,-1.08325,-0.0408778,0.0423135,-0.0727124
0.345543,-0.000636598,-0.673498,0.00850123,-0.0465825,0.00680673
0.0509339,0.174144,-0.421443,0.0586956,-0.103245,0.0244353
-0.666668,0.19118,-0.152855,0.0181975,-0.060739,0.0606549
0.460977,0.292958,-0.105486,-0.0230064,0.0390967,0.0447727
0.226234,0.331489,-0.164313,-0.00292881,-0.0262696,0.0562185
0.53491,0.326889,-0.217619,0.0221307,0.0509538,0.000691533
-0.523538,0.0448535,-0.0808523,-0.00346559,-0.082554,-0.0443786
-0.877121,0.0186462,0.661634,0.00499226,-0.265101,-0.0887771
0.0856191,0.196142,0.565789,-0.00214537,0.140074,0.0490055
0.411674,0.118376,0.218131,-0.00586213,0.0148572,0.00743747
-0.347214,-0.305133,0.214829,-0.0335574,0.0108512,-0.0202038
0.446717,0.276385,0.184115,-0.0581701,0.136491,-0.0512174
0.47566,0.271518,-0.142688,0.0461406,-0.0364025,0.0365378
0.141548,0.0882019,-0.0497964,0.0344167,0.048088,0.0352496
-0.0495856,-0.187949,-0.44939,0.0772824,-0.119526,-0.0617599
-0.624807,-0.464537,-0.0426715,0.0185885,-0.00714028,0.0604022
-0.218099,0.0114081,-0.138257,-0.0271465,0.0671152,-0.0513359
0.0455674,0.0291968,-0.236753,-0.00406168,0.0375672,0.0663651
0.0842082,-0.120587,-0.354234,-0.0169325,0.011727,0.00871468
0.205714,-0.0402536,-0.176937,-0.0128418,-0.0281631,-0.0335984
0.184451,0.0775721,-0.00148719,-0.0135643,-0.0255771,-0.00914443
0.611626,0.0505206,-0.0146702,-0.0230054,0.010861,0.00523126
2.71907,-0.329197,-0.00218028,-0.00759268,0.00164062,-0.0168362
-0.220572,-0.149964,-0.181027,0.00870071,-0.000623167,0.0374715
-0.474376,0.0971952,-0.0607102,0.00244272,-0.0202405,0.0656627
-0.252362,0.0458736,0.00883747,-0.0102103,-0.0259501,0.00897181
-0.0604847,0.0308026,0.024609,0.0116587,0.0200995,-0.0245268
-0.00514088,0.0179251,0.0152854,0.00247292,0.014604,-0.0334573
0.0726615,-0.00882861,0.0210921,-0.00485903,0.00314516,0.0165476
0.117488,0.0242682,0.0306622,-0.0109623,0.00581193,0.0175897
0.00514212,-0.0751109,-0.0385636,0.0157088,0.0113745,-0.0195101
0.0711981,-0.0377809,-0.0428325,-0.0113181,-0.0127931,0.0212919
0.0490014,0.0274388,-0.0187646,0.00366265,0.00417411,0.00952756
-0.0251676,0.0714057,0.0469175,0.005862,-0.0223256,-0.0157797
-0.131487,0.0149488,0.0906897,-0.000137717,-0.0283973,0.0183692
-0.182726,0.0202998,0.074437,-0.00858842,-0.00690591,0.01717
-0.0617628,0.0916196,-0.0163912,-0.0192774,0.0262802,-0.0122082
0.0593376,0.0155897,-0.071004,-0.0100752,0.00206506,-0.0429853
-0.0117515,0.0050504,-0.0199155,0.0226539,0.00822002,-0.00500643
-0.0531549,-0.00982588,0.00673574,-0.00406618,-0.0274154,0.0111897
-0.0424356,0.015817,0.0151586,-0.026708,0.0127204,3.73125e-05
0.27922,-0.0122335,-0.00375407,-0.00623073,0.0202062,-0.00399756
0.118241,-0.0249526,-0.0170976,0.0261952,-0.0486253,0.00894809
-0.324289,-0.0428761,-0.0731279,-0.00180727,0.00159514,0.0333703
-0.141554,0.0703542,0.00588657,-0.0160393,-0.0286229,0.0114295
-0.347529,0.101697,0.125648,0.00611451,0.0075779,-0.00937605
-0.116755,0.0917824,0.0528508,0.00392066,0.016108,-0.0218166
0.0362987,-0.0227255,-0.000322361,-0.0130018,-0.0337631,0.00984538
0.121638,0.0178242,0.0125558,-0.0108902,-0.0218847,0.0194614
0.0297276,-0.0334526,-0.0291263,0.00349712,0.00834882,-0.00377929
0.022531,-0.0718202,0.0181078,-0.00651599,-0.0302621,0.00223076
-0.0015874,-0.0353753,0.0797515,-0.0186979,0.00347859,0.00222564
0.118942,-0.040768,0.101604,0.0089162,-0.00458682,-0.0114993
-0.304684,-0.109297,-0.174126,0.01829,-0.00280631,-0.0366908
-0.577791,-0.0576103,-0.0568874,-0.0534525,0.0190151,0.0251966
0.0635713,0.121625,0.0928662,-0.0131976,-0.0305878,0.0504278
-0.685032,0.12308,-0.0103817,0.0202041,-0.0205319,-0.0145822
-1.20123,0.0702345,0.0895309,0.0098381,0.0113539,-0.00701022
0.220411,0.116985,-0.0496891,-0.0166149,-0.00969768,0.00261283
0.309939,0.0218684,-0.0369834,0.00378975,-0.0436447,0.00705898
0.104047,0.10557,0.0920531,0.0050234,-0.0156994,0.0255636
0.153082,0.107675,0.095429,0.0240961,-0.00659347,0.0355431
0.480235,-0.115779,0.122676,-0.0164417,0.0287259,-0.0442877
3.54191,-0.247946,0.391424,0.0222921,-0.0857012,-0.00390702
0.381529,-0.238105,0.376323,0.0109495,0.0482512,0.00954509
1.68787,0.0899148,1.59819,-0.0425146,-0.46654,0.0373824
1.01839,0.876622,3.43045,0.0516685,-0.24418,0.182726
-0.282054,1.83032,3.96965,0.405004,-0.141862,0.179283
-2.31975,1.42387,3.3973,0.504193,0.00646549,0.0937255
-0.178394,0.361555,2.19311,0.225674,0.441958,-0.060691
-1.15251,-0.0539142,0.58628,-0.0112655,0.327974,-0.0836858
-0.999901,-0.414378,-0.231379,-0.0728998,0.412228,-0.0382432
-1.02866,-0.366782,-1.12502,-0.0559294,0.23647,0.00766528
-0.451711,-0.176824,-1.591,0.0797232,0.0544287,0.0233082
0.273369,0.125662,-1.17249,0.0344509,-0.112029,-0.0308118
0.424025,0.113032,-0.388666,0.047202,-0.255097,0.00487459
-0.05566,0.0241096,0.475557,0.0589294,-0.171486,-0.0135437
-0.000450789,-0.021291,0.803001,0.0118674,-0.0930189,-0.0152375
-0.218067,0.00367559,0.93665,0.0193309,0.0221924,0.0109478
0.0995509,0.0487655,0.592439,0.0327064,0.140879,0.0131316
0.0554157,-0.00673626,-0.01211,-0.0156925,0.123999,0.0137399
0.068214,0.0364232,-0.37027,-0.0224591,0.106119,-0.013529
0.334466,-0.0036438,-0.565608,0.0330355,0.0223427,-0.0215685
0.184441,-0.0355093,-0.5275,0.0286124,-0.0519778,0.00741845
0.379239,0.0528019,-0.0326514,0.0101292,-0.0782121,0.0135399
0.401803,0.115409,0.349532,0.00622165,-0.0504946,0.0360659
0.280874,0.0611888,0.444522,0.0107133,0.00352249,0.046198
0.212256,0.0714846,0.194182,0.00173116,0.0561793,0.0219389
0.130615,0.00589148,-0.0888394,-0.0207539,0.0488876,-0.000783384
0.0692908,-0.0850185,-0.179296,0.0208752,0.0406867,0.000931501
0.17118,-0.0446269,-0.249694,-0.00914586,-0.00814596,0.0177608
0.0471693,0.0282846,-0.146992,-0.0270919,-0.0513089,0.0144259
-0.0975034,0.0348722,-0.108046,0.0207385,-0.0626901,0.0112473
-0.125905,0.170641,-0.0588138,-0.00118303,-0.0359733,-0.0205774
0.146084,0.0832503,0.174626,0.00636363,-0.0246559,-0.0429532
-0.184354,-0.0735388,0.166925,0.0160496,0.00151971,-0.0377884
-0.117822,-0.154934,0.074747,-0.00598693,0.0313635,-0.0264442
-0.132559,-0.147705,-0.0738708,0.0330135,0.0316801,-0.012569
-0.178711,-0.160897,-0.306879,0.00845343,-0.0491104,-0.0155274
-0.299398,-0.115719,-0.180479,0.0137513,-0.0729018,-0.0015862
-0.209379,-0.112121,0.0837424,-0.0129166,-0.0821522,0.000323296
-0.206985,-0.0124074,0.296796,0.00462198,-0.0436268,-0.00711256
-0.107225,-0.0218991,0.409417,0.0131762,0.00232404,-0.0224276
-0.0413308,-0.117053,0.389979,0.0204149,0.0674709,-0.0634239
-0.162301,-0.222107,0.126301,-0.0321301,0.0538355,-0.0304505
-0.188684,-0.292058,-0.181058,0.00098598,0.0426962,0.0182758
-0.0379154,-0.189796,-0.279454,-0.0371587,0.00214168,0.0152639
-0.0707821,-0.0588001,0.0924632,-0.00602138,-0.0131232,0.0353171
0.159254,-0.0910486,0.0764391,0.0162911,0.00328004,0.00750542
-0.324014,-0.0830687,0.154711,-0.00772083,0.0205441,0.0808448
0.0854532,0.204016,0.181093,-0.106467,0.0335407,0.111096
-0.042118,0.35479,0.215966,-0.0354638,0.0990393,0.09745
0.167761,0.492846,-0.157032,-0.00151867,0.0951445,0.0481279
0.368927,0.551373,-0.198328,-0.036572,0.0558354,-0.00665373
0.587336,0.626276,-0.0302498,0.00591582,0.061029,-0.040783
0.659556,0.422157,-0.0510919,0.0176671,0.04032,-0.0444946
0.657309,0.0888982,-0.0403943,0.105713,0.0621765,-0.0245148
-0.00894225,-0.264833,-0.416688,0.00946236,0.00847492,0.043247
-0.0191579,-0.366472,-0.512228,0.0545174,-0.0726697,0.136529
-0.107023,-0.0903722,-0.263263,0.00658959,-0.0453459,0.111555
0.290851,-0.0211229,-0.195976,0.031889,-0.127546,0.0828843
-0.376057,-0.157744,0.189191,0.0433605,-0.138317,0.0520788
0.243956,0.0196734,0.510895,0.10625,-0.0423585,-0.0544153
0.436065,-0.527527,0.435031,0.0143312,-0.104096,-0.0118295
-1.42976,-0.698551,0.786014,-0.0951967,-0.00812456,0.0425526
-0.589561,-0.170649,0.657524,-0.0486674,0.112591,-0.0508639
-0.100008,0.508528,0.143166,-0.0358666,0.0881128,-0.0781592
6.44494e-05,0.221883,-0.0234172,0.0387518,0.117509,-0.0829868
0.102163,-0.297941,-0.364771,-0.0619706,-0.0123389,-0.0674844
-0.802273,-0.230986,-0.340813,-0.0599683,0.00137046,-0.0431272
0.356027,0.219501,-0.00924684,-0.0870019,-0.0185558,-0.0874535
0.573318,0.41539,0.317241,0.0180211,0.0192575,-0.156979
1.04559,0.230025,0.19841,0.0721159,0.061475,-0.203981
0.0974431,-0.377551,-0.0779289,-0.039339,-0.0376531,-0.0355214
-0.500465,-0.590751,-0.0851996,0.0129241,0.0749961,0.109527
0.0154739,-0.306531,-0.428079,0.0377378,0.0329361,0.207994
-0.0804046,-0.0077135,-0.630178,0.0122955,-0.0631651,0.193155
-0.0608636,0.222627,-0.234132,-0.00739253,-0.108471,0.118045
0.283939,0.462731,0.386369,0.000197947,-0.0582472,0.00941855
0.175912,0.341559,0.684848,0.013158,-0.0119984,-0.0380512
-0.13376,0.104493,0.593336,0.0305837,0.123566,0.00387037
-0.0988775,0.0532512,0.0168387,0.00129032,0.107314,0.0532395
-0.175019,0.0980229,-0.0692125,-0.0270997,0.143392,-0.00397825
0.137603,-0.0362158,-0.341763,0.0200396,0.102711,-0.0203328
-0.0635729,-0.160519,-0.652629,0.0260551,0.0371897,-3.57032e-05
-0.0137268,-0.159247,-0.51355,0.00383794,-0.0424172,0.0298342
-0.28421,-0.170432,-0.308282,0.0142322,-0.0935234,0.0688736
-0.309295,0.0351038,-0.0671702,0.0318793,-0.0749044,0.0462567
-0.088888,0.108142,0.256921,0.0171459,-0.0668239,-0.0160098
-0.251815,-0.00460742,0.461116,-0.0148485,-0.0347483,0.030252
0.229713,0.243102,0.603415,0.0534143,0.0855923,-0.0374621
0.179951,0.186759,0.127067,0.00755358,0.029811,-0.09586
0.0142543,-0.135066,-0.112936,-0.0260189,0.0566152,-0.122337
-0.0461931,-0.22069,-0.23548,-0.0261636,0.0119758,-0.0364668
-0.358229,-0.0768472,-0.578414,-0.0193965,0.0339037,-0.0175905
0.279256,0.084036,-0.540744,-0.0127155,0.0336273,-0.0472833
0.115515,0.0476366,-0.657582,-0.0112205,-0.0217253,-0.0228484
0.440102,0.225193,-0.382925,0.0296094,-0.0798616,-0.0520042
-0.295376,0.0729395,-0.415679,0.0214115,-0.111759,-0.019303
0.104538,0.103579,0.174335,-0.029243,-0.0465671,-0.0321661
0.339811,0.173698,0.668386,-0.0334653,-0.0510537,0.0013389
0.529147,0.1869,0.969243,0.0802608,0.015984,0.018837
0.418922,0.188356,0.532895,0.00810564,0.0482698,0.0176545
-0.0308756,0.0748167,0.161193,-0.00186944,0.115072,0.0135909
-0.889789,0.0871356,-1.10608,-0.0159246,0.263679,0.0505728
0.462115,0.447935,-1.88866,0.0662143,0.202852,0.0434431
1.23118,-0.174002,-1.6937,0.0565525,-0.0961969,0.131508
1.91033,-0.514474,-1.23593,0.0740135,-0.149475,-0.0875661
1.11645,0.0277802,-0.584256,0.0446746,-0.116677,0.0453775
-0.126335,0.540814,-0.342217,-0.0144913,-0.118634,0.108604
0.265383,0.163698,-0.195134,-0.00787735,0.359731,0.109459
-0.460186,0.038987,-0.355173,-0.112188,0.062336,0.0697106
-0.743592,0.120066,-0.537328,-0.0524426,0.0181873,0.0301677
-0.51258,0.283865,-0.229812,0.0291039,-0.0817317,-0.0184992
0.366641,0.196296,0.164032,0.0697168,-0.0727063,-0.0801772
-0.66279,-0.097747,0.165287,0.0226738,-0.059537,-0.0176035
-1.65258,-0.449743,0.0303087,0.0555146,-0.0491456,-0.0602896
-0.0185383,-0.505269,0.138289,0.0079121,0.0267835,0.0580252
-0.31806,-0.434897,-0.0652242,-0.0135879,0.146236,-0.0155056
-0.168578,-0.700104,-0.167653,-0.0466515,-0.0304626,0.0174527
0.00185538,-0.0653869,-0.588895,-0.0123376,0.185405,0.0288216
-0.952832,0.376436,-0.627386,0.00706825,-0.0356294,-0.0223073
-0.0356314,0.680698,-0.332101,-0.041964,-0.0607775,0.0153855
-0.577548,0.637443,-0.256922,0.0688273,-0.0235592,-0.138886
-0.406287,0.336355,-0.0994037,0.0259015,0.0132685,-0.0754765
0.366781,0.169638,0.189845,-0.0319206,-0.0209769,-0.013132
0.069705,0.0214623,0.236708,-0.00545219,-0.00466955,-0.00971067
-0.181706,0.0537067,0.24197,-0.00355965,-0.0240725,0.00342429
0.139437,-0.0278937,0.142198,-0.00222871,0.0287,0.0445133
-0.0406877,0.0167731,-0.0489507,-0.00963563,0.057664,-0.025399
0.0358196,-0.0217956,-0.0804671,-0.0150844,-0.0157452,-0.00878823
-0.28331,0.00209518,0.00472777,-0.0300989,0.000493407,-0.0285873
0.131467,0.112945,0.0440242,0.00867555,0.00567627,0.0204713
0.315741,0.304278,0.195195,-0.00407252,-0.0163814,-0.0709983
0.154147,0.210207,0.0862184,-0.0754633,-0.01308,-0.0189152
-0.000251926,0.0744011,-0.0630631,-0.0435048,0.0278878,0.0938115
-0.37096,0.297617,-0.246468,-0.00198922,0.0324392,0.0886908
0.245,0.413595,-0.240639,-0.00678965,0.015187,0.0405326
0.870191,0.184173,-0.441952,0.000776738,0.0702811,-0.00764608
0.0651455,-0.147862,-0.688556,-0.0249449,0.131947,0.00928962
0.109839,-0.105814,-1.05834,0.00643793,-0.0123199,-0.0579704
-0.215421,-0.162389,-0.565571,0.0714951,-0.0618755,-0.0243657
-0.53037,-0.207324,-0.131602,0.0167754,-0.201917,0.0547895
-1.20438,-0.585836,-0.0216199,-0.0189019,-0.148391,-0.0126758
0.141968,-0.554634,0.0783111,-0.0222718,0.114972,-0.0194156
-0.412324,-0.421087,-0.150074,0.0133042,0.0907626,-0.0604215
-0.669591,-0.172626,0.103782,-0.0630056,-0.0171958,-0.104286
0.908851,0.0748462,-0.0254692,-0.0229137,0.103121,0.0880512
0.031393,0.160793,-0.124404,-0.0284011,-0.0260215,0.0688986
0.501052,0.161751,0.0151782,0.00104459,-8.46386e-06,-0.024809
0.36049,0.0700313,0.0376823,0.0127981,0.0163558,0.00148523
0.517116,0.235457,0.0222397,-0.00226806,-0.0151672,-0.00513649
0.357207,0.204581,0.0111565,0.00519661,-0.0293906,-0.032822
0.19296,0.14912,-0.0104681,0.0105316,0.0159677,0.0193214
-0.0285501,0.185635,0.00556201,-0.00774636,-0.00614774,0.00329614
0.047288,0.147182,0.0402863,0.0104179,-0.0237085,-0.0131131
0.11015,-0.0123157,-0.124053,0.0207217,0.0717141,0.0431833
0.262555,0.0914918,0.0510688,-0.0581275,-0.148677,0.0752016
0.992039,0.346844,-0.214967,0.045593,0.180126,-0.0260946
2.2524,0.0193437,-0.029694,-0.0121919,-0.00150567,0.0459694
1.16604,-0.0988773,-0.299037,0.0316846,0.0839159,0.0292654
-0.371607,-0.0312197,-0.147103,0.0239851,-0.0681332,0.0109514
-1.16274,0.0392704,0.114451,0.00682862,-0.0382355,-0.0140105
-2.90939,-0.537611,-0.0582292,0.0282406,-0.00469333,-0.0271877
-1.31965,-0.272871,-0.081773,-0.0432421,-0.06111,-0.0199689
-1.46029,-0.217225,-0.0858663,-0.0435861,-0.0182613,-0.0360874
-0.0273626,-0.0824087,0.0500431,-0.0136811,0.0196058,-0.0481567
0.0314195,-0.0648672,-0.277864,-0.0279589,0.0800146,-0.0199972
-0.780152,0.0647679,-0.409956,0.0413586,-0.0155714,0.0820392
-0.00589957,0.140216,-0.300702,0.0259888,-0.0408028,0.0428205
1.85097,0.143306,-0.174102,0.0158543,0.0072577,-0.0212967
0.479739,-0.107693,-0.139145,0.0331823,-0.0216105,-0.0320556
-0.235522,-0.0513923,-0.0171782,-0.026558,-0.0145928,0.0124849
0.346323,-0.0368562,-0.00547959,-0.0475715,0.0630747,0.000469089
0.111267,-0.0013098,0.0617902,-0.0674972,0.000500023,-0.0229946
-0.404972,0.0405783,-0.031233,0.0177496,-0.0135117,-0.0226728
-0.569923,-0.105871,-0.162319,0.0601054,-0.0932359,-0.0342492
-0.715486,-0.196424,-0.085348,0.0202197,0.0378562,-0.003708
-1.14911,-0.150158,-0.0829994,-0.0295282,-0.0209878,-0.00283968
-1.26018,-0.120246,-0.129552,-0.0053433,-0.0203695,-0.0116102
-0.838405,-0.173704,0.0262317,-0.00992531,0.0195677,-0.0115767
1.15538,-0.0192128,0.0487186,-0.0128876,0.0179889,0.0190459
1.06476,0.0983241,0.029455,-0.000406459,-0.0395723,0.0103929
1.14359,0.0843748,0.0277035,0.0169119,-0.0514235,0.00979483
1.17867,0.0832571,0.0150224,0.00803059,-0.0158406,0.00830984
1.39182,-0.135838,0.0428835,-0.0248845,-0.00664043,-0.00555634
0.0531438,-0.0975605,-0.0275533,-0.0465583,0.00189018,-0.0155351
-0.32457,0.0566811,0.0490972,0.00886184,-0.0387543,-0.0143306
-0.286229,0.0448972,0.0471829,-0.0062547,0.0342457,-0.0261848
0.134565,0.0691211,0.0315045,-0.0124468,0.0506623,-0.0163198
-0.0455801,0.106616,0.0156309,-0.0322263,-0.00750065,0.0210716
-0.2623,0.180352,-0.0615207,0.00152397,-0.0155214,-0.019942
-0.962469,-0.0637373,-0.061492,0.046322,0.0495178,-0.0204473
-0.711269,0.0449366,-0.114678,-0.0317758,0.0310133,0.0864874
-0.338939,-0.00647429,-0.0317477,0.0063243,-0.0449162,-0.0297258
0.0447357,0.0455968,-0.0210336,-0.020216,0.01366,0.00168717
0.0425615,0.0231567,-0.0262378,-0.00767646,-0.00326461,-0.00968039
0.572563,-0.0187669,0.0518766,-0.0130327,-0.00284529,0.0216177
0.57504,0.0454133,0.103826,-0.0137455,-0.014667,0.0172889
0.347742,0.0689816,0.0440569,0.0225382,-0.03218,-0.000639439
0.73269,0.12752,0.0889253,-0.0161441,-0.0217648,0.0389155
-0.228074,0.0682202,-0.0296807,0.0306329,-0.0416642,-0.0402982
-0.730258,-0.0714094,-0.0723254,0.010551,-0.00409687,-0.0357872
-1.33111,-0.297664,-0.215213,0.00440465,-0.00318527,-0.0459245
-0.229992,-0.125654,-0.332939,-0.0292133,0.0440011,-0.00195897
0.00559211,-0.0282985,-0.145708,-0.00314195,-0.095542,0.0422021
-0.325837,-0.21497,-0.138261,-0.0106288,-0.00240564,-0.0630699
-1.05035,-0.241113,-0.13012,0.0122289,-0.0597281,-0.000305533
-1.56297,-0.272801,-0.146791,0.000311241,-0.00922781,-0.039897
-0.316877,-0.0343506,-0.0817038,-0.0285087,-0.0141542,0.01949
-0.272095,0.0727396,0.0919272,-0.0105199,-0.0669981,-0.0016259
-0.255806,-0.0150743,-0.0271079,-0.00854661,0.0582561,-0.00318635
0.209649,-0.00693142,-0.0564039,0.00505325,-0.0339968,-0.0351174
-0.0819171,0.0297137,0.00423781,-0.00521703,0.000292003,0.0381186
-0.411919,-0.123744,0.0691708,0.00658417,-0.0212795,-0.00665033
-0.403714,-0.108136,-0.163818,0.0145904,0.100468,-0.0667915
0.588637,0.31768,0.0369344,-0.0527103,-0.0647698,0.083153
2.41343,0.647579,0.114282,-0.0168712,-0.0828949,0.108492
1.99013,0.577636,0.250982,0.019131,-0.159766,0.0967839
0.183162,0.476819,0.459629,0.023074,-0.0363628,0.0200536
-0.726067,0.416527,0.406396,0.00713203,-0.0291889,-0.103021
-3.45862,-0.326314,0.195839,0.000553414,-0.101929,-0.060823
-2.51695,-1.03627,0.219994,0.0491857,-0.0558708,-0.0840764
-1.33851,-1.45584,0.254909,-0.00516675,0.145879,-0.0594085
-0.124934,-1.1542,0.400668,0.0176595,0.0494775,0.0121686
2.04489,-0.945752,0.813451,0.00207263,-0.0150815,0.0578153
4.24044,-0.493141,1.58588,0.0591431,-0.154157,-0.0300214
4.64625,0.377763,2.55297,0.152176,-0.159485,0.046384
0.793248,0.579606,2.6911,0.217907,-0.149259,0.110132
-2.26243,0.00643498,2.24103,0.206563,0.115464,0.00295138
-1.00902,-0.406846,1.62764,0.103881,0.34808,-0.013817
-0.836586,-0.514633,0.539165,-0.0250398,0.315846,0.0693773
-0.937482,-0.473609,-0.478641,-0.05719,0.23632,0.122717
-0.510065,-0.0572206,-1.02572,-0.015658,0.10883,0.116563
0.673376,0.590709,-0.784019,-0.0234772,0.00106531,-0.00601292
1.44008,0.782107,-0.344325,-0.0243503,-0.10322,-0.0933099
0.501248,0.325217,0.0333523,0.0278564,-0.177907,-0.118811
-0.227026,-0.205648,0.348191,0.0311756,-0.107814,-0.103778
-0.386919,-0.334468,0.52686,-0.000668764,-0.0124737,-0.0471771
-0.426866,-0.306822,0.436782,-0.0511541,0.0475065,0.0332271
-0.482754,-0.188679,0.167624,-0.0251337,0.119113,0.0909202
-0.18047,0.0464123,-0.263353,-0.0148593,0.118134,0.11976
0.128393,0.27866,-0.484871,-0.0150937,0.065911,0.0888292
0.326035,0.397215,-0.40797,0.00769591,0.0215182,0.0339596
0.911416,0.336017,-0.332729,0.0350986,-0.0448051,0.0227175
0.141066,0.253296,-0.323324,0.0688823,-0.0641899,-0.0448796
0.313945,0.123254,-0.0889105,0.0370136,-0.0844387,-0.0379402
0.044527,-0.0427987,0.130188,0.0290538,-0.0831967,-0.0030669
-0.232062,-0.127903,0.211974,0.0237418,-0.0369312,0.0409316
-0.122355,-0.201693,0.211796,-0.00513822,-0.00901932,0.0561538
0.25821,-0.129301,0.235187,0.00171912,0.0801816,0.0483266
1.49104,-0.0600428,0.0577193,-0.0766223,0.124657,0.0140405
-0.431849,0.133893,-0.435813,0.000174642,0.163819,-0.0871093
0.294001,0.161941,-0.57645,-0.13375,0.114454,-0.0252897
4.39278,0.490802,-0.109145,-0.163388,0.00869933,0.00229895
3.67178,0.541959,0.122881,-0.00420272,-0.313371,0.324994
0.307955,0.00620489,0.167182,0.174331,0.0810879,0.194265
-0.409772,-0.594613,-0.420323,0.0678805,0.133133,-0.174949
-0.929548,-0.786722,-0.549237,0.0604827,-0.0893601,-0.09466
-0.699544,-0.237344,-0.266662,0.178901,-0.0444689,-0.119792
-0.252988,0.0350126,-0.0947376,0.0406333,0.021767,-0.0406619
-0.26748,0.0188154,-0.200463,0.00939167,-0.0665632,-0.00364983
-0.356496,-0.0928073,0.0691765,0.0436651,0.0182394,-0.00180751
0.298959,0.213273,0.0696465,-0.0267903,-0.026837,0.00548619
-0.0164094,-0.134975,-0.0735163,0.0207804,0.0155581,0.0244099
0.139117,-0.227267,-0.249697,-0.0292233,0.0133301,0.018171
0.373793,-0.422061,-0.366155,0.0181968,0.00736398,0.0209086
0.195791,-1.27775,-0.477734,0.0209516,-0.0216071,0.0328649
-0.194633,-2.26433,-0.998473,0.0225883,-0.0427116,0.0685179
-0.406002,-1.88148,-1.45584,0.0218443,0.0817114,0.0216449
3.78993,0.431647,-0.600369,0.0283064,0.0702893,-0.101478
2.69653,0.0917128,-0.602258,0.00969058,0.117693,0.0913815
0.857925,0.26647,-0.363259,-0.0186485,-0.0200476,0.142407
0.00525825,0.188315,-0.221703,0.0389266,-0.0805936,0.121896
0.695833,0.519546,0.125978,0.0302496,0.00721902,-0.00764275
1.66443,0.548734,0.132621,0.0123096,-0.0117855,-0.0477052
0.603388,0.16875,-0.1563,0.118081,-0.089056,-0.0712931
-0.202399,-0.286772,-0.159566,0.0273705,-0.119815,-0.0688339
-1.01049,-0.450766,-0.218158,0.0127233,-0.0212939,0.0116031
-0.132073,-0.254025,-0.340085,0.000570059,0.115275,0.0379322
0.10941,-0.0784067,-0.598884,-0.0567818,0.0594054,0.0721703
0.3704,0.0898175,-0.802004,0.00227273,0.11837,0.0675959
0.590341,0.400403,-1.46777,0.0685295,0.102106,0.0428052
0.883759,0.578794,-1.95076,0.0979822,0.0496432,0.00495625
1.28813,0.317601,-1.48065,0.0545414,-0.117784,0.0202904
0.75899,0.311895,-0.697283,0.0412872,-0.224031,0.00444281
0.309406,0.317146,-0.331451,0.0577929,-0.0303032,-0.0136606
0.418655,0.164811,-0.0447777,0.0087598,-0.120113,-0.0117181
0.0225907,0.139568,0.00839195,0.00689599,-0.0150518,0.0390213
0.0645188,0.0403169,0.0797113,0.0180253,0.0289668,0.0152457
0.104865,0.200451,0.0414272,0.0306446,0.00169933,-0.0179789
-0.0615366,-0.0429898,0.0327674,0.0167837,-0.0039531,-0.0629722
0.0576084,-0.202273,0.0150137,0.0127176,0.0100923,-0.004309
0.109719,-0.121171,-0.00882345,0.00620168,0.0403382,0.0428526
0.420978,-0.0391289,0.00570003,-0.0042581,0.0242355,0.0756522
0.619099,-0.328736,0.0211407,-0.00938258,-0.0253563,0.0167189
0.529188,-0.405375,0.137763,0.059067,-0.0455464,-0.0664317
0.0126321,-0.045615,-0.214819,-0.0435898,0.0839592,0.0276357
0.0709692,0.171386,-0.100614,0.0390899,-0.0397155,0.0241706
-0.363951,-0.0686502,-0.111371,0.00518432,-0.0154027,-0.0213419
-0.632679,-0.126185,-0.142989,0.0115688,-0.0190861,0.00199229
-0.425258,-0.0524395,-0.0305026,0.0126055,0.00511062,0.0170453
-0.564662,-0.151609,0.00808173,0.0193923,-0.0436429,-0.0389404
-0.140611,-0.110283,0.000854387,0.00920504,0.0157636,0.0286647
0.811661,-0.0605779,0.125899,0.0335951,0.000199318,-0.00277334
0.524253,-0.111101,-0.179356,0.00802422,-0.015119,-0.0468858
-0.115635,0.103132,-0.117966,0.00144249,-0.0299394,-0.0169267
-1.15019,-0.0733655,-0.0939847,0.0447011,-0.0759928,0.00804609
-0.47024,-0.127234,-0.0622421,0.0261706,0.0596583,-0.0181685
0.291597,-0.0231442,-0.0718149,-0.0219318,0.0317755,0.0243978
0.292172,0.283551,-0.00328493,0.0206981,-0.121851,0.0511678
-0.139146,0.307436,0.0302046,0.0303512,0.22618,-0.150827
-0.22596,-0.128718,-0.193803,0.00769389,0.0149349,-0.0254444
-0.378455,-0.235443,-0.205438,-0.00986844,0.0051924,-0.0114773
-0.378834,-0.328473,-0.260394,-0.0275868,-0.00279844,0.0282041
-0.121938,-0.21222,-0.252706,0.0167086,0.0516242,0.0239488
0.360141,-0.073602,-0.186625,0.0360805,-0.0786657,-0.00659257
-0.051309,-0.0676872,-0.0364838,0.00463891,-0.065274,0.00591415
-0.417861,-0.213736,-0.026226,-0.0508872,-0.0125458,0.0288175
2.61917,0.180618,0.171703,0.113508,0.0274291,-0.0096426
3.25477,0.722998,-0.317713,0.0616007,0.0790578,-0.0880858
1.46232,0.276768,-0.321531,0.0407054,-0.114057,-0.0266625
-0.755086,0.0309462,-0.135919,-0.0147516,-0.0301921,0.0957415
-0.205062,0.134952,-0.286255,-0.0127485,0.164248,-0.0535056
0.631104,-0.420069,-0.279524,0.0287305,0.0562823,-0.127743
-0.492328,-0.33816,-0.351575,0.0281204,-0.097944,0.0709273
-1.2292,-0.0800699,-0.297244,-0.00314859,-0.142686,0.0711901
-1.33695,-0.0434066,-0.146162,0.0538348,0.0248548,0.0308621
-4.04574,-1.2776,0.275872,1.12698,-0.964811,-0.763142
-0.614264,-2.68415,1.91867,0.17456,0.29665,0.0184925
1.17404,-1.38897,1.1541,-0.167885,0.243365,0.522467
-0.362556,-0.462348,0.157229,-0.178105,0.0734843,0.275114
0.0853145,0.324561,0.146325,-0.0503567,-0.0407128,0.125834
-0.435461,0.58532,-0.0122405,-0.0205855,0.072328,0.0147259
-0.15063,0.775761,-0.32867,0.0141887,0.0898154,-0.0222453
-0.236246,0.710253,-0.563623,-0.0771784,0.0661369,-0.0669217
-0.47343,0.594274,-1.01678,-0.0899722,0.300844,0.0472395
0.0541546,0.613591,-1.34829,0.0832324,0.0944642,-0.0586603
-0.0732397,0.824227,-1.28923,0.161509,-0.0349896,-0.0334246
0.367184,0.653739,-0.855889,0.128369,-0.0659668,0.00471532
0.404366,0.241283,-0.302827,0.0887409,-0.129114,-0.0128077
0.427109,0.100703,-0.0507434,0.0685498,-0.0267508,0.00639808
0.351085,0.185338,0.0574044,0.0120925,0.0183656,0.00567424
0.111967,0.0102305,-0.00111955,0.0636436,-0.139633,-0.00836658
0.328817,-0.0591943,0.0973707,0.0180202,-0.0443509,0.0879743
0.313452,-0.0454291,0.0213643,0.017143,-0.0699174,-0.045281
0.487306,0.0826569,0.0393457,0.0319732,0.00376177,-0.00278318
0.765203,0.0770461,0.00623587,-0.0128257,-0.0157599,0.0471593
0.655019,0.0268045,-0.0622327,-0.012851,-0.0827357,0.0250986
0.583428,-0.156904,-0.0794715,-0.0333056,0.0432745,-0.0606732
0.342434,-0.0293664,0.0555554,0.0780013,-0.0996683,0.0419213
-0.334658,0.0399769,0.322892,0.0649867,-0.0360128,0.0455513
-2.14325,-0.0770207,0.439748,0.0769111,-0.155103,0.127405
-1.97975,-0.128269,0.525101,0.0205465,-0.0170189,-0.0501066
-1.25176,-0.39469,0.590457,0.01435,0.0696058,0.0198172
-0.831066,-0.524293,0.571502,-0.100046,0.0517546,-0.0149377
-0.447709,-0.502532,0.353764,-0.0607578,0.0287443,-0.0103923
-0.393741,-0.484525,0.289743,0.0046972,0.130274,-0.0288328
0.946975,-0.248344,0.319942,-0.00319985,0.0772123,-0.062229
-0.105511,-0.010375,0.337964,0.00618359,0.0285363,0.0759813
-0.222966,-0.0741302,0.480042,0.0437139,-0.0260897,-0.0259932
-0.109394,-0.0297977,0.22482,0.0424625,-0.0224682,-0.0476096
-0.49892,0.115259,-0.0692658,-0.00562266,-0.057914,-0.0466893
-1.0481,0.125156,-0.144039,-0.0393672,0.00210381,-0.0607429
0.148365,0.264134,-0.173581,0.028067,0.0952393,-0.128735
0.627809,0.366294,-0.188476,0.0594409,0.0326226,-0.129047
0.323941,0.456181,-0.22973,0.0278808,-0.0620946,-0.0641649
0.184848,0.917822,-0.189437,-0.0357091,0.0124122,-0.0263965
0.688621,1.42821,-0.0925646,0.0340853,0.0556327,-0.0363078
0.556886,1.61885,0.133287,0.0136574,-0.0701395,0.0744871
0.357409,1.55699,0.100887,-0.0658757,-0.0536683,0.141535
0.0538318,1.19487,-0.0293209,-0.0804571,0.0406806,0.166953
-0.120319,0.974532,-0.266807,-0.0507086,0.0349299,0.129149
-0.310705,0.506352,-0.524117,-0.00101869,0.0779942,-0.00536972
-0.230339,0.166788,-0.417976,0.0974704,-0.0530496,-0.0567093
-0.172672,-0.348769,-0.17188,0.117105,-0.0291888,-0.041326
0.521587,-0.653951,0.31457,0.0530133,-0.0106713,0.0310405
0.898981,-0.744158,1.42562,-0.0183313,-0.220308,0.116721
0.0747371,-0.48627,2.54807,-0.00987855,-0.144091,0.108276
-0.44646,0.0465824,2.82901,0.0122436,-0.0231558,0.0865729
-1.44334,0.360398,2.87346,0.0995316,-0.0143055,0.0717645
-2.19551,-0.30778,2.2339,0.245443,0.304026,0.0530642
0.090295,-0.0612384,0.657426,0.051796,0.404008,-0.0407937
0.658749,0.0629599,-0.154341,-0.0887343,0.234457,-0.0552085
0.67727,0.0912789,-0.445073,-0.0491015,0.139855,-0.0524061
0.970924,0.136546,-0.698558,-0.00712913,0.0530875,-0.0320927
1.15727,0.237835,-0.727365,0.0694984,-0.053556,0.0277088
0.700268,0.267047,-0.713239,0.015728,-0.16206,0.112006
0.457873,0.280828,-0.267625,0.0371885,-0.212216,0.0768596
0.39266,0.362919,0.223086,0.0418074,-0.176078,0.0374934
0.0790511,0.19386,0.536062,0.0514676,-0.118863,0.0390896
-0.468484,0.0159509,0.574698,0.0448483,-0.0454697,0.0351858
-0.229029,-0.11279,0.360603,0.0280799,0.107497,-0.00888354
-0.549861,-0.192239,-0.00762841,0.006666,0.0843538,0.0260978
-0.374,-0.107981,-0.00644954,-0.0475513,0.0919767,0.0342301
-0.0254393,0.220752,-0.0126165,-0.0835881,0.0581259,0.0969931
0.0363141,0.125636,-0.0117688,-0.0256429,0.0314156,0.0370092
0.00225673,0.0548715,-0.177048,-0.00509417,-0.00140709,0.0599945
-0.0305722,0.0891319,-0.146406,0.0170739,-0.0084978,0.0211442
-0.0994982,-0.0968682,-0.252305,0.0647771,-0.0253564,0.00997186
-0.323195,-0.272152,-0.404794,0.0521007,-0.0682433,-0.00258195
-0.528462,-0.369835,-0.154911,0.0259603,-0.0881577,0.0247173
-1.58993,-0.606514,-0.349672,0.0321826,-0.0405004,0.0793232
-1.5296,-0.745521,-0.404105,0.00859106,0.00152412,0.0907663
-1.15542,-0.609487,-0.0296288,0.0220829,-0.078642,0.108652
-1.42791,-0.809367,0.391616,0.0375403,-0.0656418,0.115982
-0.86344,-0.615929,0.689506,-0.0666707,0.0235649,0.0543231
-0.802022,-0.41574,0.964096,-0.0370091,0.0659014,0.0824422
-0.43231,-0.157115,0.5813,-0.0096063,0.171779,0.0214584
-0.577293,-0.144389,-0.144803,0.0297889,0.107534,-0.00522918
-0.451047,-0.146024,-0.414639,0.0358171,0.0516286,-0.074046
0.235049,-0.140162,-0.430268,0.00117707,-0.0139023,-0.131924
0.269181,-0.428547,-0.398357,-0.00910354,-0.0892127,-0.101352
0.069024,-0.450645,-0.904339,-0.0471054,0.107004,-0.0338577
0.0879579,0.0654428,-0.813589,-0.075417,0.033609,-0.0363927
0.250407,0.375508,-0.581003,0.0674561,-0.15578,-0.00181311
0.0310929,0.108583,0.00755359,0.0856859,-0.220272,0.0327322
-0.206208,-0.00845371,0.782049,0.0330136,-0.187647,0.0463573
0.0357765,0.250797,1.31229,0.0619378,-0.0180019,-0.0129279
0.0293185,0.101702,0.958511,0.0561322,0.05432,0.00559533
-0.702229,-0.240942,0.174821,0.0254064,0.161712,0.0496691
-1.0052,-0.264496,-0.59758,-0.0268695,0.131578,0.050424
0.00185362,-0.00354382,-0.595501,0.00707638,0.0509499,0.0239326
0.642761,0.0551833,-0.332783,0.0278485,-0.0684611,0.0127909
0.34997,-0.0392762,-0.108888,0.0214617,-0.13783,0.00365657
0.139232,0.0331348,0.279834,-0.0236832,-0.0400819,-0.0128335
-0.105901,0.0920427,0.263576,-0.00500935,0.000778854,-0.00234568
-0.0448019,0.0939282,0.146263,0.00626379,0.00271744,0.00571167
-0.149714,0.0842508,0.0647312,0.0141947,-0.0137016,0.00447994
-0.172522,0.000834465,1.17631e-05,0.0233779,-0.0368277,0.0059129
-0.0216163,0.0158688,0.110529,0.006405,-0.0235228,-0.0182592
-0.14319,-0.0147312,0.273744,-0.0276628,-0.00861666,0.00491232
0.0355651,0.0779795,0.223595,0.0103807,0.0388592,0.00794333
0.0328011,0.0678723,-0.0594876,-0.000154734,0.037894,-0.005521
-0.193637,-0.0103946,-0.322669,0.0205734,-0.0109337,0.00842541
0.00278589,0.00451651,-0.262195,0.042679,-0.0467254,-0.00391018
-0.0473328,-0.0634993,-0.084581,0.0312122,-0.0834315,-0.0175309
-0.0127694,-0.118616,0.176608,0.0263284,-0.0743478,-0.00301492
-0.0880063,-0.044432,0.417316,-0.0432561,-0.00305334,0.0197594
-0.121268,0.00968366,0.195672,0.0105153,0.0463997,0.0216534
-0.0762181,0.0112504,-0.110815,-0.0113875,0.02603,0.00496572
-0.119874,-0.00076747,-0.282922,0.0218547,-0.00153822,0.00191516
0.0929152,0.0270607,-0.159433,0.00965518,-0.0466702,-0.0204859
0.141842,-0.0140324,0.186126,-0.00197667,-0.0441169,-0.0210513
0.0143733,0.047057,0.246154,-0.000169039,0.0272447,0.0176649
0.679081,0.0408536,0.0403346,-0.017262,0.0482388,0.00601447
-0.294833,-0.148711,-0.661916,0.00472486,0.0190178,0.0197428
-0.257849,-0.0516379,-0.722239,0.0134901,-0.0136973,0.020236
-1.01733,-0.367806,-2.25946,0.200282,0.218953,0.0345399
-1.97638,-0.331461,-3.88092,0.0566752,0.629427,-0.134936
1.07521,0.638894,-4.15145,0.28814,0.295695,-0.126957
1.93235,0.350639,-3.68907,0.485302,-0.1238,0.162314
0.946225,0.638131,-2.20094,0.292054,-0.440671,0.32402
0.56917,0.746372,-0.941212,0.0577279,-0.251768,0.0978925
2.31891,0.389623,-0.166271,0.173589,-0.0636234,-0.143425
1.35627,0.164096,-0.0498159,0.0315623,0.209206,0.114053
0.194799,-0.129514,0.143267,0.0374349,-0.137346,-0.117389
0.562204,-0.178978,0.115046,0.0137726,0.0221355,0.0151366
-0.151695,-0.0836968,-0.0730866,0.0279253,0.0476222,-0.00370729
-0.357181,-0.0546582,-0.0494705,0.0424728,-0.0164325,0.0197253
-0.202251,-0.00445155,0.0180965,-0.00706828,-0.0233135,-0.0410942
-0.219837,-0.146644,-0.0590455,0.000564635,0.004843,0.0293606
-0.187945,-0.102901,-0.0752348,0.0191809,0.035008,-0.0212765
-0.129187,0.0252652,-0.0608887,0.0516341,-0.0333756,-0.0191177
-0.174601,-0.0108967,0.00969485,-0.0183436,0.0434679,-0.0221692
-0.041247,0.114769,-0.151958,0.00885832,-0.0193841,0.00553572
-0.135001,0.16504,-0.154771,0.0191628,0.0419447,-0.0220675
-0.175846,0.231497,-0.0420989,0.034859,-0.0340499,-0.0291899
-0.322596,0.210021,-0.169656,-0.0117517,0.0402997,0.0195702
-0.352808,0.248383,-0.236261,-0.0236202,0.0153016,0.0240739
-0.0954406,0.26193,-0.318724,0.00275862,0.0243659,-0.0188011
0.0177609,0.132686,-0.264038,0.0607197,0.0189575,-0.0420855
-0.110462,0.257639,-0.335847,-0.039584,0.0437416,0.014901
0.192202,0.188761,-0.497739,-0.0246852,0.0670612,-0.0544006
0.236955,-0.314941,-0.80843,-0.0508708,0.218057,-0.0970191
0.237261,-0.487606,-1.81058,-0.14744,0.225912,-0.0700632
-0.613635,-0.0764408,-2.84214,-0.287784,0.154944,0.0824512
-0.85414,0.163069,-2.81361,0.140715,0.0353709,0.192547
-0.0460023,0.0937119,-0.588834,0.399748,-0.0829607,0.0883852
0.287735,0.136427,0.158985,0.136026,0.00355005,0.124511
-0.194248,-0.021831,0.466986,-0.0220365,-0.106425,-0.081728
0.0268458,0.238136,0.176579,0.116543,0.0286899,0.0503036
2.33845,0.0353034,0.638505,0.201028,0.113128,-0.206327
3.06515,0.793736,2.17701,0.389889,-0.239271,0.391295
-0.971842,0.889193,3.0951,0.119029,0.191259,0.086581
-0.507019,0.523292,1.74656,-0.264232,0.323735,-0.218879
-0.655797,0.151798,0.598757,-0.18845,0.126249,-0.099779
-0.236265,0.300301,0.18267,-0.0617134,0.000741959,0.0292532
0.089642,0.097086,0.177731,0.0653549,-0.0254197,-0.046286
0.0625453,0.110101,0.277979,0.00113839,0.0759245,-0.0271622
-0.0445844,-0.0430285,0.0168001,-0.000521004,-0.0437222,0.0162432
-0.155554,0.032841,-0.0161621,-0.0126498,-0.0277373,0.00306755
-0.132138,0.122531,-0.0284094,-0.00222957,0.038944,0.0180152
-0.0330419,0.0605102,-0.0222918,0.0136848,1.43051e-06,0.0147231
-0.00181984,-0.0248621,0.0392799,0.00573641,-0.00176609,-0.0307053
-0.00721362,0.0221168,0.0239959,0.0159265,0.0312488,-0.013309
-0.0744369,-0.00135714,0.010006,0.00562519,0.0219867,0.0113209
0.0651786,0.00922728,0.0147346,0.0333863,0.00248456,-0.010977
0.0984417,0.0124744,0.0533018,-0.00494778,-0.0298748,0.000792801
-0.142698,0.00508194,-0.00204271,-0.0100272,-0.010371,0.0185755
0.0416039,0.0369743,-0.0101064,0.00926721,0.0290917,-0.00137711
0.0428509,-0.0217148,0.0255358,0.0305968,0.013675,0.00382817
0.0171403,-0.0292127,0.0030521,-0.000618935,-0.00378978,0.00959611
0.0587034,-0.00147241,0.00195874,0.0292289,0.00207287,-0.0167359
-0.00189556,-0.00993114,0.025292,0.0144597,0.0115619,0.00248086
-0.00433027,-0.00360964,-0.0260441,0.00975728,0.0131365,0.0176262
0.048094,-0.0377649,0.01284,0.0215287,-0.000785887,-0.0114881
0.00364188,-0.0632755,0.0651904,0.0321865,0.016178,-0.00449312
0.057715,-0.0260137,0.0170718,0.0199938,0.0336145,0.0182
0.017218,0.0242124,0.0112525,-0.0143766,-0.0163695,-0.0120027
0.070837,0.00611582,0.0703349,0.0120724,0.000268102,-0.0176408
0.0506271,-0.0259002,0.079015,0.0131893,0.0103296,-0.00370026
0.0239605,-0.018412,0.073524,0.00633889,0.0105667,0.00658596
0.0161923,0.053062,0.015335,0.0109543,0.00733662,0.00462949
0.0356399,0.0264242,0.0625936,0.0194016,0.000548065,-0.00938803
0.0442254,0.0082792,0.074496,0.00571036,-0.00188321,-0.00490689
0.021592,0.0306497,0.0293915,0.00543016,0.000542521,0.00213754
0.0686719,-0.0109818,0.0661652,0.0159913,0.00932109,-0.00393873
0.144055,-0.00150486,0.0204426,0.0117484,0.0292492,-0.000826955
0.215524,-0.00901084,0.0346473,0.0124848,0.0374658,-0.00830853
0.0237561,-0.044105,0.0416373,-0.00231671,-0.0202253,0.00182593
0.000105496,-0.0142426,0.003958,0.0244169,0.00492883,0.0145198
0.0757504,-0.0431397,0.00549923,0.0248711,0.015071,-0.00140679
0.00432284,-0.0398916,-0.00120252,0.0111058,0.0115458,0.00205517
-0.00845053,-0.0783288,0.00434349,0.024474,0.0287288,0.00717604
0.0472168,-0.0441164,0.0449293,-0.00326824,-0.0173004,-0.0232747
0.00654993,-0.00141662,0.0113794,0.000111043,0.00796461,-0.00294226
-0.0584213,-0.000292229,0.0154027,0.0164257,0.0109091,0.00853181
-0.0041799,-0.00997491,-0.000357713,0.00530559,0.0106727,-0.0169048
0.049233,-0.0313362,0.0245558,0.0114121,-0.00997704,-0.02177
-0.0423676,-0.0120315,0.0283593,0.0260455,0.0148879,0.0133894
-0.0320591,-0.0153446,-0.0292772,0.00794798,0.0161794,-0.00254512
-0.0414644,-0.0174206,0.00168786,0.0117071,-0.0330422,-0.0227841
-0.0424235,0.0167888,0.0164201,0.0132806,0.0210527,0.0193455
-0.060668,-0.0013922,-0.00383106,-0.000620246,0.0220708,-0.00305194
-0.0287522,0.0135219,-0.0134247,0.0120821,0.00334746,-0.00654054
0.0237523,-0.0131328,0.0382308,0.0127269,-0.00886774,-0.0134115
-0.0255044,0.0391669,-0.00716717,0.0096187,0.0131604,0.00325912
-0.0940925,0.0561918,-0.0748468,0.0157138,0.0147931,-0.000762761
-0.0492543,0.0615226,-0.0608218,0.00240195,-0.00784975,-0.00757802
-0.00562487,0.062543,-0.0702848,0.0150055,0.00514585,-0.0112715
-0.029403,0.0539169,-0.125875,0.0132549,0.0176244,0.0130203
-0.0701973,0.00793308,-0.172741,0.0246632,0.00682062,0.00273365
0.0163668,0.00901144,-0.129687,0.0146727,0.00891161,-0.0135379
0.0293592,0.0250832,-0.096622,0.0296058,0.0191331,-0.00985962
0.0434036,0.0133796,-0.0633697,-0.0113523,0.0209716,-0.0011605
-0.00428013,-0.00573147,-0.0174818,0.00577217,-0.00252366,0.0110914
-0.00748676,0.0508736,-0.0242706,-0.0214154,0.0168309,-0.00983667
0.0193335,-0.019583,0.0126122,0.022901,-0.0159141,-0.00153577
-0.0170266,-0.0153222,-0.00998898,0.0223835,0.0157453,-0.00897217
-0.0299344,0.0743669,-0.0383979,0.00354487,0.0171717,0.0118457
-0.0126388,0.0445216,0.00566577,0.0372913,0.00396407,0.0149689
-0.00939995,0.000740767,0.0166486,0.0129118,0.00957429,-0.00836504
0.0374151,-0.007858,0.00619395,0.0170574,0.0110002,0.0130621
-0.00702928,-0.0824975,0.0642081,0.0147239,0.00461131,-0.00428736
0.0192084,-0.0142795,-0.00879124,-0.0179173,0.00414783,0.00857043
-0.00628502,0.0167361,0.0015964,0.0209861,-0.00256324,-0.00976461
-0.0105625,-0.0526881,0.00523673,0.0157484,0.00993943,-0.0119328
-0.00210009,0.0412751,-0.0135049,0.00852638,0.00797367,-0.00752014
0.0022675,0.0348943,0.0047165,0.00914824,-0.00532144,-0.00549579
-0.0169463,-0.0590879,0.00738942,0.0143579,0.0186505,0.00981152
-0.172679,-0.0323194,-0.0232822,0.032418,0.0290576,0.00401497
-0.0191693,0.0252608,-0.0156012,-0.0065043,0.00194114,-0.00952351
0.0428471,-0.00355926,0.0232813,0.00613326,-0.00612742,0.00637639
-0.0306447,0.00504887,0.0272241,0.0226126,0.0207089,0.007581
-0.0604364,0.00187984,0.034612,-0.00532556,-0.00106388,-0.00321293
0.0344022,0.0146273,0.0348838,0.0183999,0.0129486,0.00110036
0.0120627,0.011451,0.0412309,0.0184986,0.00230378,-0.00311899
-0.00934735,-0.00885549,0.0263256,0.0149823,0.00846231,-0.001086
-0.0285829,-0.0569186,0.0212217,0.00767857,-0.0113205,-0.0015707
0.0172493,-0.0409281,0.022358,0.0120547,0.0118299,-0.000680029
0.0523513,-0.00893219,0.00946304,0.00454223,-0.0177985,-0.00939834
0.0180938,0.00279597,-0.0185229,0.0109852,0.0083788,0.00863212
-0.0134428,-0.020552,0.0552339,0.00702268,-0.00740594,-0.00415206
0.0269888,0.0413469,0.0400255,0.00747389,0.000922799,-0.0117712
-0.0135334,0.0413682,0.0345308,0.00859183,0.00746268,0.00895369
-0.0051076,0.0359924,0.0185715,0.00648522,-0.00531054,0.00495517
-0.0199723,0.0392233,0.027042,0.0105892,0.00157541,-0.00897068
-0.116981,0.0253976,0.0203592,0.0111707,0.0156071,-0.00773877
-0.0148735,0.0284709,-0.0102622,0.0085516,0.0134174,0.0112679
-0.0884643,0.00500888,-0.0200015,0.00663805,0.0122256,-0.00572151
-0.0489556,-0.00567603,-0.00482703,0.0112522,-0.00202358,-0.00827426
-0.0575751,-0.00462981,-0.020892,0.00815374,0.0170308,0.00393027
0.00107789,0.00388569,-0.0132502,0.00218177,0.0105407,0.00937128
-0.0277027,0.0071083,-0.0155162,0.00818205,-0.0011512,-0.00434685
-0.0254662,0.000729537,0.00269653,0.0112592,0.0102382,-0.00448328
-0.0297724,0.00178743,-0.00480464,0.00745589,0.00675786,-0.00292456
-0.0382934,-0.00461414,-0.00372517,0.00976878,0.00103837,0.00207198
-0.0639587,-0.0110307,-0.018737,0.0136495,-0.00622362,-0.000917673
-0.0106555,-0.00892695,-0.0142769,0.00687832,0.0123641,0.00529259
-0.0245433,-0.00358558,-0.0207768,0.0138324,0.00892228,-0.00294542
-0.0372865,-0.0195844,-0.0121723,0.0106879,0.00265765,-0.00103229
-0.0990665,-0.00351101,-0.0103718,0.00869918,-0.00453109,-0.00887525
0.379646,-0.0233224,-0.136663,0.0374833,0.112838,-0.0919951
-0.91709,-0.341378,0.0678234,0.058976,-0.0370569,-0.0453994
0.666345,-0.525004,0.812171,0.10788,-0.181699,0.0542096
0.593744,-0.273202,1.83384,0.114203,-0.257993,0.13119
-0.552256,0.588692,3.08473,0.107693,-0.49544,0.343213
-0.188718,1.86941,4.4283,0.328268,0.0276413,0.23636
-0.844739,2.08192,4.10821,0.338609,0.172557,0.0604255
-1.0719,1.80861,4.09738,0.323016,0.053362,0.0265031
-1.88274,0.529362,2.78951,0.465676,0.499144,-0.0939059
0.765678,0.223507,0.0725978,0.0167029,0.509122,-0.193168
0.283654,-0.322818,-1.01655,-0.00140214,0.26657,-0.150514
-0.225855,-0.671606,-1.55256,0.0472262,0.0829943,0.0667177
0.0428483,-0.364468,-1.72556,0.0987193,-0.11001,0.183496
0.167764,0.311757,-1.03178,0.02563,-0.256883,0.0898127
0.76652,0.669125,0.17335,-0.00298971,-0.2766,0.00669402
0.266059,0.510952,1.13304,0.0360233,-0.211671,-0.0564696
-0.117572,0.247734,1.3267,0.0852082,-0.0136344,-0.0955501
-0.286027,0.00338293,0.796631,0.00553876,0.122649,-0.028812
-0.242864,-0.113086,0.185327,-0.0201544,0.189561,0.00788242
-0.251773,-0.092765,-0.415307,-0.0148609,0.146787,0.0533177
0.0255708,0.0912636,-0.735995,0.0285804,0.0625846,0.0402099
0.258843,0.163693,-0.754824,0.0496253,-0.0514006,0.0167011
0.313626,0.12137,-0.498985,0.0454994,-0.141994,-0.0232694
0.117895,0.036037,0.0970277,0.0168264,-0.158311,-0.03109
0.0565694,-0.0176255,0.537348,0.0205055,-0.092752,-0.00748301
-0.0804633,-0.0579851,0.610819,0.0128298,-0.0122198,0.0212399
-0.0891672,-0.0562071,0.402429,0.00273651,0.0608546,0.0394434
-0.0540287,0.0050827,0.0367535,-0.0172285,0.0854316,0.0311461
-0.0683806,0.0185209,-0.226227,-0.00816631,0.0485059,0.0169832
-0.0306825,0.0257754,-0.337251,0.00750875,-0.00317523,0.00652736
0.00475181,0.0194194,-0.291133,0.0115637,-0.0458227,-0.00987768
-0.028078,0.0230186,-0.0797259,0.00860733,-0.0715156,-0.00198925
-0.0226303,0.0169531,0.119065,0.0177315,-0.0568434,0.00375277
-0.0486592,-0.00421001,0.222744,0.0105985,-0.0153663,-0.0130221
-0.216726,0.174363,0.254078,0.00857824,-0.00351793,0.0364773
0.00671672,-0.000300352,0.0391533,-0.00579029,0.0246016,0.00362819
0.00481646,0.00479769,-0.100855,-0.00082767,0.0145326,-0.00576448
0.0163135,0.00472392,-0.138207,0.00309604,-0.032336,-0.0110754
0.0496449,-0.034731,-0.0844039,0.00987178,-0.0293151,0.0008322
0.063202,-0.0142229,0.0426588,0.000945747,-0.0234486,-0.0124937
0.0558507,-0.00350502,0.0596559,0.00158578,-0.0110411,0.00366569
0.0514934,0.0103542,0.042456,-0.00594783,-0.00219274,0.0153657
0.0503288,0.0680004,0.0207085,-0.00194502,-0.00871739,0.0269883
0.101592,0.111786,0.0366429,-0.009076,-0.00742674,0.0126067
0.0697678,0.126803,0.0588651,0.00464082,-0.00224853,-0.00312239
0.0847848,0.108665,0.077202,0.00539845,0.00122026,-0.017622
0.00762085,0.0220806,0.0101634,0.0136713,-0.00303766,-0.0125062
-0.154617,-0.0216681,-0.0328991,-0.0100921,-0.0277041,0.0178335
0.0541513,0.0030294,0.131196,0.0141938,0.0162048,-0.00367951
-0.237805,-0.184282,-0.209518,0.00913095,0.0047695,0.0139555
-0.0937056,-0.0871241,-0.175419,-0.00665885,-0.0150003,0.00225043
0.228939,-0.0540074,-0.0344581,0.0299505,-0.011789,-0.0207461
-0.328371,-0.339389,-0.373394,-0.00909567,-0.0620536,0.0434183
-0.613326,-0.287732,-0.277567,0.0249449,-0.101555,0.0700646
-0.464255,-0.103548,0.0455373,0.0148008,-0.106623,0.0280483
-0.355372,-0.144914,0.260971,0.0608082,-0.0950109,-0.0446308
-0.482198,-0.322566,0.628126,-0.0187021,-0.0267734,-0.0332367
-0.388308,-0.28384,0.823753,-0.0173138,0.0796144,0.0320159
-0.0404681,-0.0734245,0.351437,-0.0165977,0.213378,0.0438508
0.14209,0.0310321,-0.310997,-0.0166089,0.165696,0.0274532
0.0493419,0.0376285,-0.854156,0.00888866,0.051467,0.00133067
0.177651,0.0619159,-0.95961,0.0345102,-0.0878862,-0.0193376
0.156607,0.0106107,-0.375983,0.0222884,-0.17597,-0.0246409
0.0825187,0.0266995,0.240129,0.0138997,-0.163657,-0.0210267
-0.122322,-0.0366812,0.55817,0.0201872,-0.101212,1.09076e-05
-0.197898,-0.0376703,0.570715,0.0244612,-0.00627199,0.0130758
-0.070663,-0.0165882,0.464209,0.00448632,0.0610234,0.0152903
-0.118598,0.00632573,0.108087,-0.0139311,0.0947074,0.0141486
-0.0439905,0.0270125,-0.246491,-0.000677705,0.0694691,0.00234747
0.0224086,-0.0127676,-0.364583,0.00746089,0.00323698,-0.00407314
0.0836628,0.00229015,-0.278974,-0.00025636,-0.0348059,-0.00618583
0.0920989,-0.0113149,-0.114313,0.0382447,-0.0567561,-0.00946516
0.0910539,-0.0248812,0.0684758,0.0102951,-0.0567304,-0.0152687
0.0455838,-0.0578539,0.129419,0.00993109,-0.0222276,-0.00280035
0.0193866,-0.0448895,0.201893,-0.00621843,-0.00285459,0.0117083
-0.0297894,-0.058028,-0.0022793,0.00580955,0.0155366,0.0155084
-0.00972992,-0.0324632,-0.0354943,-0.0103199,0.00210401,0.00990248
0.00306557,-0.00149735,-0.0367149,-0.00265366,-0.00205719,0.00198197
0.0254194,0.00488717,-0.0409455,0.00298464,-0.0148219,-0.00475526
-0.0554777,0.00497155,-0.0273579,0.0236852,-0.0233351,0.00223625
0.0462205,-0.00778206,0.0532375,-0.0178095,-0.0227278,-0.0197968
-0.0159547,-0.0153212,-0.00891643,0.0245277,-6.90222e-05,0.0108805
-0.025455,-0.00247136,0.00485432,-0.0094533,-0.0190994,0.0053941
-0.0394471,-0.00143326,-0.0187118,0.0168414,-0.0144624,-0.000131011
0.0109588,0.0114407,0.0348159,-0.00209802,-0.012619,-0.0119209
-0.0618411,-0.0249197,-0.0197094,0.00557607,-0.00822783,-0.00172174
-0.020113,0.0135498,0.00583804,-0.0175231,-0.0139905,0.00334728
-0.0340522,0.0178066,-0.00919946,0.00671172,-0.00809628,0.00753582
-0.0308168,0.0317002,-0.00393557,-0.00177991,-0.0135002,0.00100905
-0.0277278,0.0209859,-0.0209492,0.00566769,-0.0142369,-0.00903249
0.0150958,0.0039248,0.0145795,0.00665319,-0.0116057,-0.0072419
0.0460399,0.00177789,0.0221893,0.00887662,-0.00357941,-0.00369698
-0.0107271,-0.0238993,-0.0248666,-0.000432014,-0.00741577,-0.00120765
0.0736618,0.00386887,0.00839014,0.00974172,-0.0152229,0.00466323
-0.00941503,-0.00353485,0.0145375,0.0112628,-0.0117435,0.00785792
0.0226874,-0.0120639,0.0382201,0.00173002,-0.0133559,-0.010836
-0.0265579,-0.0516109,0.00303135,0.00950646,-0.00572544,-0.00495851
0.068332,-0.0132162,0.00954904,-0.00429881,-0.0139164,0.00592923
0.0278663,-0.0281312,0.0148364,0.0142956,-0.00276965,-0.00357395
0.0159446,-0.0207047,-0.0194467,0.00729418,-0.00807375,-0.00415778
0.053243,-0.0111186,-0.0193699,0.0123192,-0.0172276,-0.00488466
0.13379,-0.024879,0.0878666,-0.0127985,-0.0292485,-0.00710702
-0.0940447,-0.0783664,-0.0547434,-0.00299907,-0.000314057,0.0315691
-0.0894513,0.0221225,-0.00836576,-0.0132248,-0.011586,0.0372765
0.052578,0.100075,0.037603,0.00683528,-0.0070428,-0.0133271
0.00972295,0.0284799,0.00478525,0.00850695,7.83503e-05,-0.0308068
0.0650144,-0.024997,-0.00962011,0.0154456,-0.000778049,-0.0245296
0.0308253,-0.0687882,-0.0212164,-0.00933313,-0.0192272,0.00522608
-0.0771859,-0.048529,-0.089065,0.0327648,-0.0229037,0.0375602
0.00364081,0.0243034,0.0571433,-0.00206375,-0.0465982,0.00854206
-0.0592954,0.0253986,0.0451468,-0.00452507,-0.0110434,0.000324965
-0.0338631,0.0253376,0.0217384,0.00838405,-0.000240177,-0.00446564
-0.0093528,0.0189126,0.0229388,0.00158757,0.00369507,-0.00998902
-0.0139434,0.00066247,-0.0303807,0.0150239,0.00307328,0.000821173
-0.00225257,-0.0207149,-0.0334057,0.000528574,-0.0137667,-0.00531507
-0.00992647,-0.0164998,-0.0697891,0.0134962,-0.0239107,0.00715899
0.0258022,0.0295648,0.0208637,0.00633532,-0.0211599,-0.00566345
-0.0242905,-0.0344841,0.0242976,0.0252479,-0.017554,-0.0135921
0.0899871,-0.0141993,0.0673318,-0.00658691,0.00177717,-0.0153211
0.00305723,-0.0442223,-0.034299,0.013212,0.0112483,0.0136306
0.0787646,0.00166346,-0.0289726,-0.027531,-0.00197664,-0.00219548
-0.0271502,-0.0218783,-0.0986668,-0.000802219,-0.0228773,0.0259615
0.0875232,0.0871685,0.00255931,0.00559223,-0.0240174,0.0188059
0.109607,0.0518217,-0.0430734,0.00565964,-0.00807545,-0.0422486
-0.0678769,-0.0475498,-0.136049,-0.00840062,-0.0429139,-0.0134999
-0.0029808,0.0402617,0.0174833,0.0079459,-0.0489739,0.0292015
0.0772278,-0.0109772,0.0715359,0.00984806,-0.00477201,0.0317796
-0.136327,0.0499292,-0.00979088,0.0171046,-0.00446719,-0.0363651
-0.106369,0.0413998,0.0117429,0.021241,-0.0149664,-0.0152829
-0.0922058,0.0500231,0.0630284,0.0316138,-0.0291373,0.00199598
0.157154,0.0458833,0.246693,-0.0247598,0.0153756,-0.0302352
-0.110863,-0.0900343,-0.0151992,0.0280244,0.0394538,0.0204125
0.0518739,-0.00479861,-0.0707005,-0.0042178,0.0049904,0.0328137
0.0190283,0.0476144,-0.0444523,-0.0052712,-0.0158675,0.0133116
-0.109015,0.00814125,-0.0713887,0.0152203,-0.0364126,5.31673e-05
-0.0571642,-0.000236392,0.0474589,0.00738448,-0.0426775,-0.0134491
0.0329745,-0.00972963,0.1547,0.00815558,-0.000471056,-0.0323927
-0.135369,-0.0750632,-0.0164563,0.00410855,0.00651225,-0.00106728
0.000349924,0.00184957,0.0433866,-0.00960666,0.00913179,0.00568002
-0.000109705,0.00278337,-0.0335491,0.0105054,0.00614002,-0.00778997
0.0135577,-0.0207767,-0.0621952,0.00866759,-0.0136516,-0.00834256
0.0694167,-0.026028,0.0139102,0.0205638,-0.0158383,-0.0341566
0.17146,0.0421777,-0.0331618,0.0297665,0.00602841,-0.0273701
1.79991,0.566658,-0.556144,0.0283347,0.305493,0.1082
3.10192,0.911618,-3.0868,0.482691,0.195318,0.0201408
2.2474,-0.614272,-3.12604,0.0559127,-0.222694,0.056874
0.312102,-0.475262,-2.6598,-0.13676,-0.27803,0.0413838
-0.724145,0.531758,-2.66807,-0.191019,0.0746347,0.220407
0.694263,0.346602,-2.25876,0.067808,0.0599099,0.128571
0.233072,0.163655,-0.788044,0.254697,-0.164445,0.161026
1.04452,-0.0730881,0.401438,0.411927,-0.0333298,0.0394967
-0.779859,-0.705122,0.420075,-0.0298,0.0415468,0.123563
0.417252,-0.627589,0.682618,-0.168822,0.04052,0.33356
-2.16634,-0.629832,0.726383,-0.154832,-0.0476838,0.236032
0.48142,-0.88986,0.389667,0.0520445,0.17,-0.398727
4.09067,-1.11143,0.47193,0.0443506,0.173783,-0.225166
-1.43116,-1.63301,-0.254813,0.0615216,-0.0967443,-0.0834674
-1.18199,-1.08001,-0.332258,0.087427,0.00835204,0.106818
0.50615,-0.456369,-0.324637,-0.0497406,0.0645813,0.0433369
0.473852,-0.245281,-0.577213,-0.164127,-0.0583206,0.0165649
1.15531,-0.133656,-1.19936,-0.0891243,-0.0614673,-0.0552701
1.36976,-0.671269,-1.28162,-0.0217037,-0.0304955,0.0318097
0.160842,-0.872088,-1.19188,0.0168808,-0.00342077,-0.0241902
0.0984358,-0.635247,-0.780165,0.00998116,-0.0179176,0.0509678
0.240622,-0.271772,-0.555476,0.0768231,0.25363,-0.0567582
0.136965,-0.220517,-0.610687,0.108576,0.198949,-0.0238777
1.06648,0.0781248,0.140907,0.134689,-0.22649,0.0284584
0.926995,0.289596,0.672169,-0.00621969,0.115564,0.0372513
-0.0964376,-0.247947,0.094861,-0.0116969,0.215033,-0.0809549
0.260296,-0.315566,0.0656507,0.0513828,-0.000377119,-0.039458
0.280784,-0.249424,0.634779,0.0753677,-0.0457242,0.0570596
0.0520192,-0.0660786,0.315406,-0.0528125,-0.025131,-0.0328758
0.172179,-0.322881,0.119858,0.00754237,0.0585892,-0.0640765
0.3295,-0.13193,0.0401413,0.038784,-0.0456016,0.0234149
0.335213,-0.000453351,0.0927346,-0.0427153,0.00446513,-0.0190583
0.0666183,-0.0216362,0.0801128,0.0428474,0.0239708,-0.0142081
0.0439381,-0.00355207,0.027558,0.0412411,0.0198356,-0.00549948
0.0304667,-0.0443274,-0.0833474,0.006212,0.00881422,-0.0183532
-0.088722,-0.049534,-0.0581175,-0.00240993,-0.00983179,-0.00607502
-0.85362,-0.0203908,-0.216094,-0.010335,-0.126766,0.0353158
-0.749592,-0.275533,-0.0804951,-0.0470129,0.127628,-0.0785811
-0.0317566,-0.234827,-0.315266,0.0584217,0.0288547,0.136067
-0.237564,0.0817319,-0.193082,0.00089246,-0.0812867,0.059154
-0.139673,-0.00458067,-0.0297527,0.0106028,0.104787,-0.0173972
-0.0568449,-0.176681,-0.0614466,0.113354,-0.0548885,-0.0897385
-1.12688,-0.0894362,-0.113032,-0.0279138,0.0566245,0.029412
0.409047,0.0783058,-0.039987,-0.0550045,-0.0709316,0.00928646
1.92667,0.208627,0.00545066,0.0174549,0.121795,0.0475522
0.298594,0.0229563,0.0251341,0.0458763,-0.0524312,-0.0612224
0.163136,0.072148,-0.0024031,-0.0220749,0.00955644,-0.0422903
-0.345369,-0.0898851,-0.0310354,-0.00259399,0.0125112,0.0108584
0.331185,0.126402,-0.0576844,0.0392009,-0.0377161,0.045416
-0.0802902,0.0180306,0.098538,-0.00393438,0.0534118,0.0412779
0.0388799,-0.0269661,0.074702,0.0345729,-0.0122791,-0.00440741
0.180223,0.0169198,0.187135,0.128545,-0.0367257,0.0421328
-0.19812,0.175562,0.336408,-0.0310769,-0.0331805,0.0164999
-0.138606,-0.0804126,-0.0228451,-0.153617,0.0657758,-0.0827478
0.220738,-0.0413997,-0.159583,0.0338649,0.0352803,-0.00429749
0.16419,0.11669,-0.186462,-0.0204666,0.0391714,-0.0228565
0.0371148,0.201079,-0.240907,0.0639256,-0.00121641,-0.0139456
0.0378059,-0.0440564,0.0748089,0.147286,-0.0420541,-0.0751263
0.0181396,-0.412035,0.382699,-0.0420691,-0.12031,-0.0393966
0.0927246,0.24413,-0.0326302,-0.0993114,0.0748357,0.115171
-0.362072,-0.0758861,0.0254372,0.0387505,0.0171479,-0.020686
-0.403712,0.117124,-0.184318,-0.0128713,0.0612438,0.0417237
0.169334,0.273634,-0.231266,-0.0406255,0.0210454,-0.0301331
0.134471,0.270544,-0.181161,0.0307139,-0.0544006,-0.0115412
0.194637,-0.098275,0.291576,0.0881758,-0.0990349,-0.0359995
-0.0938998,-0.277734,0.165579,0.0589023,-0.0544704,-0.0320535
-0.101824,-0.0479252,0.245262,-0.0107121,-0.0423593,0.0513484
0.106795,0.301546,-0.179329,-0.0742418,0.021496,0.0665474
0.158593,0.126227,-0.232487,0.00792563,0.02694,-0.0741702
-0.186118,-0.0877258,0.0507483,0.144029,-0.0949042,0.00258201
-0.304664,-0.0311106,-0.000279378,0.00527644,0.0502245,-0.0278894
-0.131442,0.123491,-0.0903833,-0.0763625,0.0406911,-0.0161616
0.334931,0.18072,-0.148843,0.00291967,-0.00582731,-0.00723243
0.343972,0.111753,0.121957,0.0446982,-0.0309283,-0.0499759
0.238004,-0.00686087,0.0518116,0.0451158,0.0152873,-0.0406856
-0.129641,-0.287177,0.247777,0.0460486,0.01073,-0.0127752
0.0879139,0.246109,-0.124547,-0.0741894,0.0472631,0.0319237
0.157906,0.180809,-0.174079,-0.050413,0.013317,-0.0251074
0.073065,-0.000576344,-0.090951,0.0320084,-0.00548136,-0.0266686
-0.0786091,-0.166873,0.0399114,0.130488,-0.0238998,0.00957525
0.0332574,-0.0291854,0.0255494,-0.049022,0.049513,-0.00270844
-0.275166,0.024307,-0.0614302,0.020596,0.00133771,-0.0361149
0.103651,0.316516,-0.171958,0.00230175,0.0676883,0.0246623
0.297316,0.0552483,0.164886,0.032181,-0.0458063,-0.0723795
0.24681,0.097883,0.0896292,0.0389475,0.0295912,-0.0123235
-0.421915,-0.260351,0.19095,0.0690839,-0.0780123,-0.0155612
-0.171129,-0.0204291,0.0567776,-0.0231323,0.0727046,0.00679493
0.0894794,0.13411,-0.0308612,-0.0330406,0.0245181,-0.0318986
-0.0789765,0.0316743,-0.0393738,-0.093116,0.0532363,0.028982
0.659304,0.217678,-0.253644,0.0213481,-0.0166573,0.0258756
-0.373424,-0.0800426,0.0873929,0.125403,-0.0135054,0.0613067
-0.119085,0.178449,0.18924,0.0816162,-0.0365173,0.0564421
-0.219222,0.0450255,0.20469,-0.0686198,0.0295257,-0.0761835
-0.299904,-0.147384,0.0934459,0.0383926,0.0175761,-0.081852
-0.728593,-0.548434,0.248298,-0.0316337,-0.0257962,-0.0932019
0.0247475,0.31122,-0.180767,-0.0768508,0.0426641,0.0427068
0.147363,0.347908,-0.52672,-0.0482401,0.0956569,0.00322729
-0.0110646,-0.0247533,0.0969389,0.134921,-0.105313,-0.0563968
0.11626,0.124519,-0.00612372,0.0250732,0.0606843,-0.0899116
0.0336662,-0.0290645,0.0939274,-0.0150664,0.0252851,-0.0374992
0.20865,0.0645487,-0.0524006,0.0469258,-0.0140002,0.0273377
0.330747,0.363379,-0.152177,-0.0471481,0.0415119,0.0492473
-0.239733,-0.189248,0.00312429,0.077686,-0.0504674,-0.124754
-0.127749,-0.136968,0.0160276,0.026787,0.02282,-0.0168003
-0.195409,-0.154918,0.106708,0.0999353,-0.0216175,-0.0398073
-0.0216239,-0.0660589,0.29483,0.0062719,0.0321577,0.0109951
0.515281,0.322713,-0.114896,-0.0766044,-0.0344562,0.0327655
-0.110729,-0.0515452,0.00378251,0.0109334,0.0114181,-0.0130311
0.171903,0.0879218,-0.141372,0.0856682,-0.0539113,-0.0217837
-0.422633,-0.210675,-0.111745,-0.0433246,0.0535445,0.00851095
-0.0498919,0.0360169,0.0130609,0.0301794,-0.04931,0.00466055
0.212574,0.0369896,0.0717326,-0.00701851,0.0253784,-0.017489
0.251505,0.0581767,-0.0126665,0.0218627,0.0035848,0.00462627
0.0553979,0.165113,-0.0311894,-0.0113634,-0.00337118,0.00566417
0.209214,0.130932,0.0358515,0.0501637,0.00683129,0.0161103
-0.240788,0.0460368,0.161861,0.0259841,0.00611448,0.0358382
0.023284,-0.0164725,-0.0397481,-0.0880391,0.0566289,-0.0692953
-0.0392929,-0.124524,-0.160017,-0.036338,0.020022,-0.0199372
0.158933,0.103898,-0.173578,0.028009,-0.0357156,0.0330137
0.0287284,0.140559,-0.034334,0.0904184,-0.00744385,-0.0303438
-0.126665,-0.0828053,-0.163819,-0.0280589,0.0781395,-0.0115346
0.374568,0.375134,-0.13072,-0.0282439,-0.0445497,0.0543876
0.027928,0.0701467,0.0163357,0.0544112,-0.00929272,-0.0740041
-0.115018,-0.135614,0.184881,0.0334729,-0.0280491,-0.0280373
-0.0596523,-0.11355,-0.00203432,0.0130273,0.00857341,-0.00629807
-0.215858,-0.191275,0.0758825,0.0399157,0.00181347,0.0212586
-0.123629,0.0363216,0.154885,-0.0118465,-0.0151365,0.0488413
-0.10558,0.011412,-0.0318635,-0.119179,0.116124,-0.0202739
0.160974,0.179701,-0.195431,0.0472337,0.00664756,0.0235262
-0.0701776,0.13428,-0.00261195,0.0794824,-0.017074,-0.0314352
-0.169119,-0.0204661,0.0364848,0.00383842,0.0161597,-0.0103804
-0.463536,-0.366074,0.189341,0.00924653,-0.0238211,0.038564
-0.159903,0.0883576,-0.0357723,-0.0570049,0.0124469,0.0576031
-0.206166,-0.0217466,-0.100405,0.0430596,0.0330256,0.0211831
0.0253705,0.307885,-0.254465,-0.0811325,0.087132,0.0658018
0.458286,0.430476,-0.21197,0.00347459,0.0190496,0.0106241
0.114639,-0.019515,0.0920313,0.0334954,0.00418451,-0.0557238
-0.20702,-0.178374,0.127117,0.0195243,-0.0189987,-0.0362756
0.119483,0.0882118,0.00160177,0.0314988,0.00150055,0.00849956
-0.1387,-0.039542,0.136087,0.0654674,-0.0164739,-0.0572701
-0.451046,-0.229462,0.127603,-0.00386137,0.00501347,-0.0132494
-0.0466667,-0.00883405,0.0219099,0.0282658,0.0253833,0.0182792
0.318117,0.305761,-0.120867,0.00138628,0.000912309,0.000518084
-0.370306,-0.109973,0.0769146,0.0319948,0.0268985,-0.0294327
0.110812,0.0497254,-0.0195492,-0.0224799,0.0175502,-0.0189701
-0.243517,-0.134189,-0.278251,-0.0440531,0.0636206,-0.0340348
-0.145254,-0.113903,-0.240616,0.00340891,-0.0580544,0.0237016
0.412203,0.17259,0.122886,0.0822247,0.0228387,-0.0080297
0.178868,-0.00910778,-0.0370771,-0.0278637,-0.0182423,0.0503221
-0.353576,-0.155248,-0.15031,0.0492646,0.0626546,0.0269408
-0.128434,0.126951,0.0559802,0.068998,-0.0360805,0.0586227
-0.263272,0.0815778,0.31861,-0.0206333,-0.0329578,-0.0341455
-0.0825555,-0.0332725,0.0806981,-0.0535076,0.0683364,-0.0473123
0.182788,0.0100137,-0.0959504,-0.0523667,0.0487081,-0.0334972
0.156884,0.0238209,-0.152765,-0.00297397,0.0209489,0.00642896
0.129988,0.145834,-0.0286483,0.0742061,-0.063138,0.0581878
-0.134006,0.00543685,0.204197,0.0549657,0.0166217,-0.0575944
0.0994367,-0.0900775,0.0507628,-0.017769,0.0487357,-0.0644778
0.1011,-0.117984,-0.0249102,-0.00482142,0.016699,-0.0215756
0.0981751,-0.047412,0.0141535,0.0399772,-0.00341153,0.00196046
-0.150989,-0.21913,0.0570727,0.0213872,0.0149834,0.0590243
-0.0443129,0.0659915,0.0524195,-0.00694883,0.00229812,-0.00228328
-0.0452395,-0.00125323,0.0816995,0.0104275,-0.0128785,-0.0401678
-0.441514,-0.0756882,0.104203,-0.0204434,-0.00635099,0.0502531
0.141894,0.145879,0.00238068,0.018419,0.0303271,-0.0218422
-0.254735,-0.116635,-0.0177025,-0.0223615,0.0356845,-0.0124187
-0.0954132,0.0956357,-0.121051,0.0302504,-0.0147034,0.0185852
0.0211905,0.110638,-0.0448565,0.0029248,0.0256542,0.0124822
0.0448151,-0.13818,0.00813303,0.0497297,0.002267,-0.0706275
-0.17723,-0.00890218,-0.0736711,-0.0545647,0.0285861,0.00506294
0.0213998,0.148835,-0.191478,-0.0461876,0.0299593,-0.0257403
0.281971,0.101505,-0.267124,0.0526739,-0.0020214,0.00807494
0.532246,-0.156561,0.092347,0.0506229,-0.000761777,-0.107127
-0.0662158,0.134189,-0.0528129,0.0283033,0.0944543,0.00390351
-0.113169,0.0159643,0.12407,0.0441619,0.00363553,-0.0198155
0.468053,0.0773107,0.0275535,0.00495726,0.0839223,-0.0496492
0.180867,0.257417,0.273189,0.0623635,0.00840855,0.0686153
-0.112586,0.15925,0.208622,-0.0416887,0.0489342,-0.0315364
-0.30717,-0.102776,-0.0564547,-0.109995,0.0414621,-0.159271
-0.0830928,-0.322423,-0.339465,-0.0348804,0.0254155,-0.049439
0.372086,-0.0457728,-0.151509,0.0869141,-0.0113316,0.059094
0.0970783,-0.00790359,0.00534701,0.00717169,0.0394432,0.0479211
0.447682,0.314083,-0.193092,0.00650525,-0.00238395,0.0340472
-0.289388,-0.106848,0.0665118,0.135985,-0.072431,-0.018312
-0.20726,-0.0478308,0.253414,-0.00591671,-0.0709876,0.0293555
-0.3772,-0.0236022,-0.0144917,-0.119791,0.0415202,0.00837445
-0.0690728,0.168914,-0.355422,-0.0522878,0.0862799,0.081977
0.259109,0.264034,-0.184925,0.0203432,-0.0672604,-0.00678807
-0.172732,-0.401252,0.357339,0.130464,-0.0252236,-0.0405358
0.125455,0.0221775,0.115308,-0.0386968,0.0112001,0.0110521
0.126306,-0.0238119,0.0835562,0.019281,0.00743532,0.00432348
0.162885,0.0795507,-0.0451898,-0.0231379,-0.0203062,0.00125957
0.177696,0.162816,-0.0702497,0.0186449,0.0247357,-0.00356221
0.0878524,0.0552235,0.0604635,0.0575859,-0.0129432,-0.0102344
0.174756,0.0496821,-0.0171744,-0.0536763,0.0378529,-0.0490534
-0.390703,-0.144179,0.0546206,0.0262431,0.0214787,-0.0144134
-0.149057,-0.181808,0.0205097,0.03646,-0.00155863,-0.0443906
-0.0305139,-0.0013199,0.0497007,0.0098809,0.0102564,0.0257493
0.0573697,0.127684,-0.0544459,-0.0631315,0.0251858,-0.0423576
-0.0608073,-0.0238604,-0.0250573,0.0701012,-0.0282312,0.00188547
-0.106602,-0.0163434,-0.0220715,0.0219108,0.01563,-0.0399655
0.358626,0.115313,-0.278679,-0.0901235,0.105238,0.126413
0.383507,0.105035,-0.0370506,-0.0111707,-0.0863767,-0.0190867
0.035315,-0.0769574,0.195748,0.0718225,0.014044,-0.0824915
0.0830594,0.0382953,0.151372,-0.0210251,-0.0308033,0.00371087
-0.11999,-0.136885,0.0662715,0.0491127,-0.063857,0.0280051
-0.613022,-0.415184,0.141022,0.0161769,-0.0536429,-0.0465682
-0.0127237,-0.112504,0.00561346,0.027028,-0.0121188,0.0160487
-0.015024,-0.0164288,-0.0313444,-0.00584781,0.0219573,0.0129905
0.605636,0.339672,-0.152066,-0.00720453,0.0114547,0.0136195
-0.206484,-0.0225946,0.024605,0.0691515,-0.0394784,-0.0349132
-0.185512,-0.203964,0.16262,0.0701214,0.000664264,-0.0283908
0.0552138,0.0874049,0.123169,-0.0534564,0.0221842,0.0355426
-0.215288,0.00905937,-0.203212,-0.0696183,0.085508,0.0213935
0.39378,0.190804,-0.464948,-0.0169706,0.0388399,0.0319557
0.167539,-0.0845037,0.213386,0.0749338,-0.170092,-0.04311
0.0750105,-0.068675,0.0622861,0.0659575,0.0861302,-0.0610025
-0.0417776,0.351275,0.0943847,0.0574721,-0.0295167,0.0491883
-0.373498,0.0149913,0.0664757,-0.0589861,0.0474652,-0.0816252
-0.419339,-0.309975,-0.0865163,-0.00326985,0.0247419,-0.0636334
-0.0229468,0.116947,-0.120922,0.0226174,-0.103169,0.0879056
-0.0200331,0.0327978,0.0174666,-0.0152107,0.0626256,0.0100223
0.0135425,0.0607018,0.10609,0.063962,-0.0117298,-0.0173284
-0.178542,-0.146439,0.0757306,0.0789269,0.0406467,-0.00196618
-0.218458,-0.0469133,0.162548,0.0234928,0.0415492,0.0623279
-0.128782,0.0613865,-0.174379,-0.0608537,0.0756282,-0.022743
0.0735496,0.0900358,-0.196243,-0.0444387,0.0307915,0.0688871
0.0860342,0.0966585,-0.0690947,0.0456589,-0.0545388,0.03843
-0.395588,-0.0639432,0.121396,0.0562266,0.0147868,-0.0209826
0.164087,0.16183,-0.029694,-0.0320358,0.0430436,0.00854313
0.125462,0.154305,-0.0735965,0.0444159,-0.000690728,0.0239317
-0.00586119,-0.00450025,0.0743885,0.0829275,-0.0268602,-0.0546687
-0.00561631,0.102376,0.105748,-0.0255267,-0.00289106,0.0256844
0.0708713,0.126815,0.0652761,0.0237612,-0.018416,0.0181093
-0.241061,-0.127377,-0.0464302,-0.0177056,0.000731111,-0.00823748
-0.16827,-0.0568433,0.00360199,0.0625658,-0.0339759,0.0209162
-0.273346,-0.20617,0.0853786,0.035822,-0.0168206,-0.018637
-0.00806407,-0.0333572,0.0649523,-0.0116715,0.0668795,0.0668231
0.14328,0.279165,-0.134171,-0.00581557,-0.00990796,0.0538541
-0.14071,-0.012048,-0.0243657,0.0103273,0.0394802,-0.00927293
-0.327723,0.00533206,0.060299,0.206589,0.120372,-0.0564059
0.0058203,0.685432,0.00585251,0.232877,0.0322984,0.23171
0.214383,2.00929,0.909436,0.328289,-0.155302,0.17599
0.62208,2.35345,2.41631,0.357392,-0.184755,-0.109106
-1.8223,2.09854,4.02431,0.297535,-0.18682,0.0453672
-1.42221,1.67206,3.43879,0.14095,0.240669,-0.167224
-1.28298,2.1215,3.33916,0.0539831,0.0300213,-0.0879781
-2.57683,1.17623,2.83614,0.294625,0.199133,-0.0623596
-1.06246,0.138773,0.304563,-0.0222344,0.436673,-0.0989147
0.795689,0.062219,-1.13039,0.0970728,0.23671,0.0264412
-1.9331,0.0879522,-0.423846,0.00387466,0.0090448,0.168513
-0.845582,0.166681,-0.136078,-0.185882,0.0896183,0.0464483
0.920465,0.231843,-0.592524,0.0911856,0.220521,0.103731
0.765646,0.468793,-1.37995,-0.0314096,0.183596,0.107026
1.37875,1.35386,-1.38553,0.00171053,0.201115,0.110163
1.49245,1.14857,-2.66698,0.189525,0.407812,0.15766
1.15787,0.452018,-2.25023,0.145784,-0.0357083,0.0786979
1.51937,0.0467779,-1.09553,0.263169,-0.0777388,-0.0619405
1.08565,-0.173372,-0.729245,0.200956,-0.371826,0.100975
0.761361,-0.0876139,-0.0867418,0.123831,-0.204444,0.034929
0.0208284,-0.397855,-0.0597228,0.0588536,-0.0780331,0.0603148
-0.397894,0.0431236,0.260658,-0.0196599,-0.208231,0.0163976
0.288437,0.227105,0.0900157,-0.149111,-0.00529981,-0.0765412
-0.658057,0.537903,-0.348266,-0.102143,-0.108668,-0.017045
-0.00155475,0.943749,-0.715984,0.0319453,0.113738,-0.121227
0.645252,0.509205,-0.313284,0.116519,-0.031751,-0.0397877
1.02258,0.751716,-0.133945,0.0270336,-0.0316327,0.141928
-0.233247,0.813796,-0.60596,-0.1692,0.24621,0.0328982
0.00617211,0.639119,-0.821893,-0.144469,0.0266221,0.0713729
-0.304078,0.841158,-0.871377,0.0490902,0.0454395,0.0251507
-0.0136383,0.297179,-0.896681,0.0770458,-0.083147,0.0309034
-1.5671,0.0356285,-0.865542,0.04871,-0.138587,0.0905839
0.668481,0.0474213,-0.485428,-0.059634,0.0658742,0.101569
-1.35757,0.0689601,-0.0401311,0.0731415,-0.384762,-0.116968
-0.109102,-0.548465,0.498496,0.0128468,0.0871862,-0.022624
-0.031413,-1.36867,0.0222353,-0.030308,0.223571,-0.0350415
-0.209709,-1.6587,-0.367602,-0.0984379,-0.0140448,-0.0186008
0.277493,-1.06761,-0.554453,-0.141159,0.0190896,0.0343461
0.483672,-0.216696,-0.719466,-0.127213,0.0247255,0.104504
0.395608,0.269126,-0.87894,-0.0374547,0.0649186,0.151605
0.647674,0.211883,-1.12871,0.0157185,0.00760573,0.0800772
0.236375,0.146596,-0.768691,0.0667215,-0.0970523,0.00676328
0.684401,0.0583824,-0.318761,0.088576,-0.0339946,0.0235885
0.158042,0.0174393,-0.136694,0.111482,0.026497,0.0359334
0.217059,0.00928312,0.11146,0.0447527,-0.0520729,0.0143096
0.104669,0.190029,0.187864,0.0658292,-0.0858752,0.0289641
-0.024909,0.192384,0.256813,0.0840945,0.0329321,0.0409774
1.14023,0.217293,0.344351,-0.0710238,0.12745,-0.0737622
5.1468,1.57974,-0.0896804,-0.161674,-0.108206,0.142742
0.279852,0.595255,-0.131435,0.0615633,0.164473,0.0603107
-0.747636,0.0465174,0.217657,0.138578,-0.0338382,-0.0336394
-1.1116,0.217052,0.45452,0.0532401,-0.227556,-0.0721236
-1.52967,0.434821,0.190841,0.0126605,0.00128812,-0.0334783
-2.64029,0.23414,-0.20841,-0.120886,-0.0741062,0.240964
0.453335,0.159308,-0.124754,0.178779,-0.0730764,-0.128636
0.388652,0.616124,0.242793,0.00731091,-0.260533,0.208568
-2.18753,0.176413,-0.0375252,-0.0141928,-0.138328,-0.0155561
-0.445929,0.324473,-0.135603,-0.0671997,0.0492435,-0.0413054
-0.474925,0.767665,-0.213377,-0.171963,0.000820637,0.0696614
-0.602153,0.559367,-0.266995,-0.157341,-0.183852,-0.0124466
-1.35476,0.361798,0.0466626,0.0483148,-0.0748535,0.138982
-1.55386,-0.243896,-0.0516582,0.0317309,0.00357831,0.0371593
-1.42391,-0.309469,-0.231315,0.0304744,0.107458,0.266562
-0.915829,0.246859,-0.130449,-0.0161543,-0.105504,0.112999
-1.06571,0.0722285,0.122275,-0.0783034,0.033221,0.0376554
0.615769,-0.46165,0.367092,0.0504664,-0.0235854,-0.0349798
0.426224,-0.536681,0.749374,0.094055,-0.077332,-0.0487478
0.8981,-0.250222,1.05593,0.0455412,-0.0267232,-0.0156984
1.72566,0.0594066,1.32734,-0.0551239,0.113436,-0.0103208
0.432652,0.0305863,0.169825,0.0340122,0.428323,-0.0383003
-0.216446,-1.08771,-0.65447,0.00385506,0.0733041,-0.131273
0.797997,-1.24928,-0.98298,-0.0411912,0.0626038,0.0843541
1.95535,-0.815224,-0.273078,-0.01979,-0.00128669,0.203149
0.226719,-0.0645319,0.664364,0.0532889,-0.213553,0.195723
-0.956296,-0.481952,0.295094,0.0416029,0.0434846,0.0739225
-0.127998,-0.167389,0.33355,-0.100124,0.0283709,0.0274872
0.234082,-0.0804524,0.115311,-0.0615261,0.120448,-0.0437883
-3.09749,-0.457943,-0.340258,-0.0238782,-0.0282773,-0.000103295
-1.41551,-0.739798,-0.74776,0.0563546,0.0646277,-0.173667
0.561436,-0.0638507,-0.0235394,0.192215,-0.0588756,-0.229477
0.385873,-0.449209,0.0520266,0.055707,-0.0383118,-0.0541564
0.880461,-0.648181,0.102179,-0.00674137,0.0166692,0.056156
0.405761,-0.206572,0.148825,-0.0364549,-0.031687,0.0343074
1.01543,0.331317,0.13373,0.0103785,0.0677891,0.0274713
0.507478,0.589941,-0.0183639,-0.00900707,-0.0453866,-0.0128714
-0.145483,0.513281,-0.157073,-0.0193134,-0.0449372,-0.0675508
0.36929,0.106764,-0.276448,0.0179158,0.0388413,-0.11586
0.529548,0.0773101,-0.557729,-0.0447303,-0.00856817,0.0171255
0.363919,0.280535,-0.477396,0.0614397,-0.0285321,0.0823718
-0.178061,0.0816388,-0.220638,0.104799,-0.0113311,0.0490131
-0.178989,-0.0184042,-0.010578,0.0508564,0.0366033,0.0589916
0.240801,-0.105995,0.17213,0.0393179,0.0318406,0.00695163
0.18445,0.125848,0.171483,-0.0431175,-0.0300233,0.0373897
0.0417383,0.114982,0.00541136,-0.0126429,0.102589,-0.0188301
0.143179,-0.106115,0.0617153,-0.00640747,0.0492647,0.0521691
-0.0482913,-0.261809,0.129319,-0.0175935,0.0354695,0.0373808
-0.0717082,-0.318079,0.316575,-0.0252667,0.0303745,0.0291575
0.150986,-0.20717,0.307073,-0.0441553,0.0280321,0.00860566
0.376062,-0.103667,0.340368,-0.0615132,0.031792,0.0692206
0.180451,-0.105525,0.414437,-0.0791072,0.0619419,0.092711
0.0662518,-0.199482,0.391114,-0.0413264,0.0645466,0.03493
0.409224,-0.136762,0.36528,-0.0370582,-0.0406636,-0.0343172
0.379092,0.140551,0.112284,0.0636693,-0.0745909,-0.0496097
-0.0858409,-0.0863857,0.248775,0.140427,-0.02771,-0.082934
-0.056376,-0.213614,0.198427,0.0651373,0.00945723,-0.016602
-0.178979,-0.180431,0.183862,0.022618,-0.0426412,-0.00338066
-0.168213,0.00511891,0.00747537,0.00434613,-0.0353957,-0.0284835
-0.047013,0.0914613,-0.0449869,-0.00114042,0.0354742,-0.0278702
-0.151121,0.173559,-0.178397,0.0102271,-0.0542241,-0.0485632
0.0802659,0.341116,-0.164727,0.00428441,-0.0522355,-0.0164267
0.177541,0.483051,0.40954,0.105742,-0.228643,0.0631995
-1.76235,0.567986,1.71592,0.223356,-0.200325,0.168353
0.124921,-0.0128665,1.4543,0.122036,0.214808,0.0370883
-0.71027,-0.31671,2.04399,-0.123889,-0.274219,0.0172216
-1.56537,0.380757,2.24355,-0.377949,0.193549,-0.173897
-4.2803,-0.0237204,0.672866,-0.332772,0.403207,0.0381501
0.740158,-0.249285,0.302073,-0.0134084,-0.0239487,0.0294114
-3.32526,-0.414043,0.231294,0.335921,0.0997859,0.140344
0.353256,-0.159313,0.27333,0.29228,-0.129162,-0.0632316
0.989546,0.103753,0.101986,0.184201,-0.0861717,-0.0666679
1.19275,0.0743619,-0.124643,0.180367,-0.0915031,-0.0899191
0.23091,0.011097,-0.0669307,0.22711,0.0385885,-0.0810622
0.604904,0.339014,0.0819253,0.273536,-0.0742275,0.0618945
2.89937,1.26019,0.0706538,0.180748,-0.137087,-0.0143505
-0.801789,2.02854,-1.35427,0.241508,0.282784,0.300175
1.56256,0.436792,-4.06284,0.219657,0.305217,-0.316236
5.57363,-2.09459,-3.39568,0.255854,-0.134805,-0.363798
3.87824,-4.11217,-0.927243,0.240916,-0.605048,0.27485
1.62354,-2.91852,0.197681,0.0416637,-0.332417,0.390241
0.291454,-0.724438,-0.38888,0.0235293,0.25734,0.29174
-2.95855,0.19327,-0.505298,0.0165594,-0.000803471,0.106709
-1.92568,0.905607,-0.148118,0.122472,0.0258166,0.227142
2.56509,0.0714886,0.048263,0.130648,0.809725,-0.236228
0.35248,-0.0811271,-0.219736,0.0608627,0.110943,0.073442
-0.0967256,-0.0557827,0.0295033,0.048686,0.0557279,-0.0382123
-0.0636625,-0.0184177,0.0315234,0.0131702,0.0107217,-0.00569487
0.0926601,-0.118709,0.167382,-0.0125366,0.0230576,0.034004
0.0993726,-0.145323,0.223142,-0.0138527,-0.0738059,-0.0399351
0.092033,-0.123921,0.241137,0.071353,0.0107036,-0.0463053
0.202003,0.0106334,0.26632,0.0441489,-0.014592,-0.0276217
0.360211,-0.0537294,0.179716,0.0448677,-0.0291951,-0.0282711
0.0823614,-0.0409419,0.0418309,-0.0215589,-0.0359042,-0.00240672
-0.160342,0.00278767,-0.101465,0.0481331,0.0182962,0.0152565
-0.272579,0.0187877,-0.16289,-0.00469768,0.0142812,0.0232711
-0.196974,-0.0250725,-0.166596,0.000757992,-0.0356231,0.0258683
-0.0779657,-0.013198,-0.0444253,0.0512861,-0.0263319,-0.0562477
0.0213035,-0.0473993,-0.0117769,0.0693593,0.0624642,-0.0378665
-0.123589,-0.200014,0.00469486,-0.00845194,-0.0144048,0.00337625
-0.168803,-0.0238883,-0.0885029,0.0250234,-0.056467,-0.0158823
-2.63622,-0.911923,-0.136858,-0.0524828,0.31656,-0.156228
1.07557,-1.5936,1.98844,0.412537,-0.403556,-0.0632232
-0.696455,-0.801399,4.04091,0.177313,-0.594761,0.249621
-0.400632,0.0554999,5.50237,0.296671,-0.159638,0.32415
2.54577,1.72817,4.86363,0.306437,0.670978,0.234249
-0.561226,1.72559,3.2643,0.26945,0.356981,-0.0560476
0.708579,0.911854,1.50925,0.20345,0.566999,-0.284624
0.527573,0.167384,-0.361726,0.0312669,0.137426,-0.230114
-0.640968,-0.793809,-0.756262,-0.00153679,0.0573886,-0.178792
-0.912217,-1.07819,-1.01079,0.109404,0.0814174,-0.0075714
-0.999803,-1.03609,-1.40672,0.136874,-0.174386,0.129281
-1.2964,-0.567241,-0.97815,0.245524,-0.386322,0.169884
0.709131,-0.468292,-0.946707,0.273431,-0.0280026,0.151981
0.41655,-0.30529,-0.710596,-0.0456586,0.0100349,-0.0140916
-1.47541,-0.665992,-1.32756,-0.284658,0.147102,-0.258396
0.756634,-0.188364,-2.11509,-0.345914,0.18278,-0.408045
2.47236,0.555281,-2.49492,-0.0799648,-0.011525,-0.100011
2.83716,0.810249,-1.91718,0.260684,-0.175861,0.200706
1.78343,0.0811923,-0.238936,0.580559,-0.135053,0.127862
