rotation_x,rotation_y,rotation_z,acceleration_x,acceleration_y,acceleration_z
-0.000389184,0.356487,0.665913,-0.0583775,0.0842985,-0.0144182
-0.106417,0.221836,0.587323,-0.0435589,0.0621776,-0.0312461
-0.100141,0.220417,0.389694,-0.0616617,-0.0205022,0.0230697
-0.0950467,0.175488,0.354745,-0.0553427,-0.059297,0.0427907
-0.0184405,0.194623,0.334606,-0.0242821,-0.0686327,0.10561
0.00271974,0.440523,0.465579,-0.0365181,-0.0939894,0.167181
-1.08388,1.33553,1.13417,-0.000226796,-0.109801,0.34316
-5.49793,2.79894,4.08913,0.196956,0.120553,0.671084
-4.77478,3.91764,5.17974,0.60733,0.0575576,0.383543
-4.5382,3.47117,4.69311,1.23656,0.324448,0.116399
-0.738158,1.57577,2.44276,0.364612,0.369227,-0.00601506
-3.06515,0.417175,1.66907,0.158657,0.64876,-0.169805
-0.285881,0.436692,1.20389,-0.192699,0.916392,-0.291472
0.543779,-0.298633,-1.10784,-0.0106737,0.622171,-0.289413
0.724158,-0.914538,-2.60434,0.476632,0.490913,-0.193859
1.04157,-1.01966,-3.32581,0.0626547,0.12906,0.0758514
2.2655,-0.740364,-2.51636,0.511224,0.0107198,0.262132
0.666362,-0.779506,-1.76884,0.537443,-0.211202,0.422961
-0.659361,-0.728063,-1.63416,0.00428915,-0.435966,0.363001
0.679828,0.234608,-0.321204,0.0513427,-0.45251,0.258737
0.0874637,1.11184,1.39109,0.110829,-0.429586,0.269669
1.94453,3.1254,2.79534,0.641099,0.0184078,0.0706716
-0.955432,1.90398,1.89384,0.111555,-0.0643583,-0.0150102
-2.72214,0.552665,1.10854,0.163592,0.349103,-0.149962
-2.24332,-0.0792779,0.343012,0.0697046,0.33217,-0.123611
-0.45308,0.20886,0.347848,-0.145927,0.420999,-0.213681
1.65006,-0.0752303,-0.545277,-0.220316,0.285777,-0.417543
0.420828,-1.32291,-1.08563,0.183699,0.0902412,-0.183925
-0.447324,-1.42383,-1.74959,0.436957,0.0290105,0.0461349
-0.329204,-1.27626,-1.61014,-0.074042,-0.0944219,0.181977
0.890879,-0.195683,-1.33799,0.307586,-0.219586,0.306119
-0.319692,0.0124317,-0.135454,0.0409138,-0.30513,0.309091
0.310213,0.611048,0.376944,-0.00383031,-0.308801,0.158564
-0.432355,0.860089,1.97309,0.00492996,-0.210616,0.0795171
-0.799801,0.684186,2.01452,0.184724,0.0416193,0.0101998
-1.08795,0.246504,1.44145,0.415631,0.252475,-0.051567
-1.59776,-0.15853,0.505142,0.0126976,0.275326,0.0211789
-0.692297,0.4394,-0.476178,-0.070961,0.302479,0.0370063
0.166316,0.0569168,-1.36371,0.0304659,0.0765459,-0.206035
0.746111,-0.340785,-1.30126,0.0704976,-0.299795,-0.248968
-0.0178971,-0.413556,0.123795,-0.14529,-0.235999,-0.0540147
0.0904846,0.458594,1.06412,-0.101956,-0.0451578,-0.0247841
-1.66107,0.0530353,1.12323,0.13077,0.0273991,0.00842977
0.267026,0.0149496,0.335773,0.274014,0.276185,-0.209348
-0.168377,-0.67643,-0.605883,-0.342796,-0.00420496,0.0166034
1.09959,-0.795628,-0.415518,0.378158,0.160458,0.0832327
-0.778855,-0.685742,-1.30794,-0.0082953,-0.0911444,0.248871
0.417335,-0.0988451,-0.532643,-0.0994673,-0.0901432,0.211099
-0.396262,0.206027,0.584204,-0.0263773,-0.163683,0.155609
-0.243044,0.426486,0.884653,0.0539424,-0.056076,0.096932
-0.527175,0.342297,1.48674,0.410936,0.0891112,-0.032938
0.0598015,0.542433,0.736519,-0.159163,0.250331,-0.0575299
-0.00269648,0.0944111,-0.765185,0.0373141,0.118667,-0.0802099
-0.153913,-0.422246,-1.23893,-0.100101,-0.0387872,-0.0943798
0.672503,0.0541532,-0.282664,-0.0419528,-0.0937479,-0.0238177
0.64987,0.331963,0.361863,-0.111498,-0.125345,-0.024751
-0.193134,0.00786224,0.359738,-0.0356382,-0.09229,-0.0445368
-0.453348,0.265255,0.832556,0.119829,-0.009644,-0.0472136
0.395527,0.0295468,0.79773,0.0141617,0.279097,-0.219682
0.116814,-0.39479,-0.692117,-0.0792637,0.167599,0.0831308
0.559292,-0.676868,-1.15234,0.142739,0.182247,0.0460574
0.185833,-0.34734,-1.62706,-0.122695,-0.0614597,0.183404
0.0480269,-0.351434,-0.973656,0.000377297,-0.176611,0.190559
-0.370699,0.0712534,-0.117865,0.073686,-0.215868,0.144737
-0.404256,0.40333,1.01134,0.33882,-0.198507,0.0300788
-1.57971,0.125581,1.71606,-0.0229735,-0.0902795,-0.00513124
-0.289916,0.353454,1.24929,0.14689,0.149378,-0.0288054
-1.29121,-0.214261,-0.0777886,-0.0892211,0.0230631,-0.0269307
-0.0737405,-0.0224289,0.193705,-0.0759544,0.102638,-0.0879096
0.116323,0.189952,0.776411,-0.195265,0.0755696,-0.163491
-0.65028,-0.335269,0.0268966,0.0110894,0.165067,-0.123464
-1.46586,-0.497486,-1.46132,0.580724,0.0538304,-0.0565018
-0.983353,-0.798776,-1.28447,-0.113402,-0.160026,-0.1412
-0.279818,-0.698023,-0.174507,0.311345,-0.2167,-0.0300311
-0.620226,-0.628627,0.268245,-0.0149745,-0.329972,0.0995409
-0.824502,-0.755613,0.864496,-0.0422436,-0.264445,0.151789
-0.54115,-0.428851,1.53549,0.138973,-0.0603698,0.249723
-0.725054,-0.102523,1.75599,0.13205,0.0698457,0.274612
-1.48772,-0.37761,1.10744,0.155762,0.107213,0.24304
-0.964253,0.106039,0.580589,0.0839964,0.0875079,0.0762302
-0.400433,0.736738,1.08612,-0.0491695,0.135505,-0.137405
-0.504005,0.445178,1.07587,-0.203336,0.190041,-0.209756
-0.248509,-0.157633,0.379838,-0.14949,0.275939,-0.269759
-0.293926,-0.629288,-0.579947,-0.0640185,0.24713,-0.0996076
-0.288309,-0.659603,-1.41953,0.0799383,0.152144,0.0592557
0.137413,-0.642798,-0.788729,0.2224,0.0998042,0.00160182
0.996024,0.289652,-1.08218,0.675488,-0.0399006,0.00237834
-0.325111,-0.189183,-1.20155,-0.0381106,-0.294323,0.0405262
-0.313327,-0.165498,-0.480456,-0.0852116,-0.256389,0.124489
0.0587539,0.124214,0.420828,0.0600487,-0.197855,0.184792
0.308998,0.800983,0.869332,0.0436322,-0.0954347,0.19074
-0.0105628,0.883491,0.877216,0.198425,-0.0583907,0.0358331
-0.5449,0.762298,0.979641,-0.0664493,-0.00234035,-0.119172
-0.682839,0.333532,1.29282,-0.184614,0.113872,-0.297932
-0.63566,-0.290331,0.685893,0.0201028,0.224871,-0.275325
-0.855502,-0.854991,-0.390403,-0.152031,0.211424,-0.180618
-0.164607,-0.91902,-0.666267,-0.093161,0.183394,0.0175085
-0.0907115,-0.326962,-0.478577,0.26794,0.153202,0.222199
-0.0667318,0.149523,-0.43136,-0.257399,0.103555,0.074466
0.721264,-0.0610393,-1.3833,0.619536,-0.0927265,0.0959193
-0.784142,-0.0947882,-1.1761,-0.231675,-0.223226,-0.0839483
-0.24921,-0.146712,-0.0946288,-0.0385696,-0.246966,-0.0144438
-0.307989,-0.0771192,0.582098,0.132395,-0.218504,0.134421
-0.935964,0.187536,1.38364,0.121866,-0.0843822,0.127667
-0.527604,-0.120288,1.45661,0.292632,0.0547096,0.0304374
-1.43398,0.00039323,0.438479,-0.0328733,-0.0911441,0.0011636
-0.94815,-0.228368,1.16512,-0.0773396,0.0728398,-0.0146092
-1.2158,0.283232,1.61917,-0.0420083,0.304714,-0.0829326
-0.0281868,0.366717,1.00551,-0.254386,0.376418,-0.13493
0.901804,0.363775,-0.274199,0.572284,0.501883,-0.142598
1.04664,0.232053,-2.2334,-0.41376,0.203791,-0.328007
0.0798176,-1.21577,-2.88473,0.498432,-0.0764847,0.117257
-1.15333,-1.23177,-4.01218,0.339516,-0.442284,0.212386
-2.74582,-1.46135,-1.6009,0.198176,-0.519565,0.201422
-1.27872,-0.122282,1.8235,-0.280344,-0.350223,0.0185287
0.898219,0.651234,2.84166,0.0385165,0.168994,0.12471
1.76688,0.187219,1.14802,0.0417165,0.195033,0.124643
-2.30517,-0.143194,-0.194236,0.218712,0.086688,0.0351307
0.331955,1.05711,-0.481694,-0.15115,0.350086,-0.490196
1.84911,0.0428006,-0.767533,-0.114797,0.110557,-0.230523
3.24566,-0.609588,-1.83294,0.0015285,0.244194,-0.136951
0.592612,-1.01894,-2.49838,-0.185232,-0.207554,0.121988
-1.80811,0.123551,-1.37581,-0.318849,-0.105235,0.185623
0.174548,0.640732,-1.64312,0.594236,0.279726,-0.0997666
-1.46799,-0.466825,-1.64316,0.735638,0.122101,-0.259017
0.582054,-0.237809,-1.12732,0.140229,0.165234,-0.429206
0.355996,-1.25094,-0.886539,0.0281682,-0.514097,-0.0488202
-1.23233,-1.82144,0.825005,-0.0116564,-0.736885,0.485364
0.384944,-0.549745,1.21814,-0.209086,0.349438,0.0217277
1.34451,0.351577,0.882532,-0.0731651,0.380491,-0.308523
1.30943,-0.391282,0.607285,0.251872,-0.429689,0.0805936
3.18885,0.0178734,1.43865,0.237153,0.149749,-0.203105
-0.478823,0.251731,1.02807,0.151552,-0.232609,-0.00432116
-3.05741,-0.0249621,0.508426,-0.196263,-0.12794,-0.0532262
-1.65997,-0.22086,0.263843,-0.220989,0.0298343,-0.0300694
0.0752013,-0.283209,0.178856,-0.109372,0.0839182,-0.191504
-0.137577,-0.747106,-0.0817684,-0.163624,0.152244,-0.287518
1.36454,0.204687,-0.0310321,0.217477,0.038068,0.0818933
-0.127936,0.91526,0.668222,0.108535,-0.250505,0.133408
-0.643238,0.552768,0.233784,0.0932224,0.088783,-0.00125313
0.379829,0.863291,-0.120191,-0.123268,0.0418857,0.00459266
1.67054,0.00554729,-0.157877,-0.275064,-0.0187861,0.00611115
-0.0757752,-0.398972,-0.112643,-0.203661,0.12119,-0.110247
-0.37123,-0.192974,0.886051,0.16686,0.232826,-0.272301
2.19923,-0.157268,0.425325,0.505132,0.117834,-0.144037
-0.315876,-0.49297,1.61688,0.387074,-0.20368,0.538067
-1.30469,-0.83329,0.218927,-0.394133,0.3942,0.176808
-0.758818,-1.86444,-0.3461,-0.473668,-0.159122,-0.191669
-0.457608,-1.66504,-0.418919,-0.157176,-0.239372,-0.203163
0.749785,-0.996556,-0.62815,0.0279576,-0.0397363,-0.244487
1.06664,-0.793129,-0.223341,-0.0261195,0.131691,-0.170549
1.12533,-0.792078,-0.20817,0.0893979,0.073436,0.108954
0.317359,-0.459712,-0.469778,0.116859,0.107446,0.135569
-1.86827,-0.115743,-0.189573,0.102473,-0.301045,0.325658
0.803778,0.0193616,0.647605,0.26001,0.155177,-0.011447
-0.0917419,-0.130075,0.934768,0.477204,0.0649754,-0.365867
-2.10974,-0.316056,0.607884,0.0484095,0.0370754,-0.137597
0.726581,-0.169006,0.405998,-0.104276,-0.205722,-0.0373792
0.226202,0.0214247,-0.255275,-0.114428,-0.0422972,-0.188381
0.230535,0.128068,-0.965401,-0.0522075,-0.0580983,-0.095018
0.407257,0.453641,-1.02027,-0.135979,0.237374,-0.108359
-0.772833,0.392731,-0.932408,-0.204814,-0.209967,0.225737
0.828526,0.283174,-0.58273,0.0868445,0.0588113,0.0844078
-0.432808,-1.36726,0.672264,0.455317,0.138116,0.0220654
-1.42957,-1.7374,1.15494,0.254019,-0.839643,0.28874
-0.386494,-0.0985855,1.71022,-0.31413,0.0788255,0.102895
-2.97979,-1.76935,-0.0740309,0.267371,0.52833,0.317657
0.643425,-1.09593,-1.29996,0.137363,-0.97828,1.19416
-2.22272,-0.0558689,-0.312025,0.152315,0.184956,-0.198793
-1.96941,1.89365,-0.179474,0.0310211,-0.125352,-1.02205
1.40327,0.934993,-0.212985,0.156286,-0.150054,-0.177738
0.217416,0.0619406,-0.302583,-0.055661,0.0887359,0.228586
-0.516775,-0.0257236,-0.660556,-0.153663,0.172856,0.496716
0.423576,0.260101,-1.12473,-0.0307878,0.318596,0.302263
-0.518543,0.21576,-0.621527,0.17598,-0.0051865,0.12255
-0.297358,-0.672341,0.453506,0.218109,-0.161605,0.131931
-1.2825,0.15582,0.810926,-0.292545,0.0736536,-0.123368
0.368123,0.700785,-0.815811,0.0341178,0.0613459,-0.431251
0.902328,-0.728364,0.0897475,0.249294,0.0835349,-0.455021
0.723934,-0.628234,1.07354,0.047065,-0.0360295,-0.365421
1.39008,-0.457034,0.914657,-0.044793,-0.148296,-0.0434921
1.68954,-0.456043,0.389026,0.00151712,-0.18198,0.19365
1.22129,-1.04005,0.357938,0.0268719,0.307317,0.257806
-1.06514,-0.915453,0.372073,-0.122838,0.239066,0.369722
-0.212866,1.02462,-0.358516,-0.315383,0.158263,0.110951
-0.300072,0.678825,-0.834196,-0.0361456,0.0270653,0.116207
-0.0696385,-0.451384,-0.150747,0.103672,0.00845981,0.0963735
-0.206745,-2.12782,0.769928,0.425527,0.323373,-0.127559
-0.631727,-1.35571,1.0828,0.123132,-0.184607,-0.370154
2.0639,-1.27216,1.76974,0.0271693,0.156196,-0.0574151
1.83589,-1.41968,1.60744,-0.16947,0.0985309,0.137865
0.756959,-0.919077,0.920623,-0.374144,-0.0682025,0.351194
-0.317372,0.390573,-0.137903,-0.686281,0.135214,0.310746
-1.25285,0.429206,-2.27214,-0.243276,0.140993,0.0350112
-0.179775,-1.00426,-1.76948,0.453385,0.131089,-0.332525
-0.704118,-2.92903,0.522175,0.608339,-0.338301,-0.357795
-0.523559,-2.2389,1.25454,0.482505,0.159103,-0.25061
-2.13744,0.27281,-2.29474,0.0667795,1.18074,0.558113
0.231433,0.252756,-2.96421,-0.227064,-0.232949,-0.17988
7.53088,-0.800032,0.456933,0.174959,-0.619165,0.474581
-8.00343,0.926105,-0.81229,0.0852861,0.106735,0.534633
-1.63965,-1.65741,-0.84223,-0.0916038,-0.811731,-0.83501
1.23588,-0.0689099,2.88819,0.0779002,-0.431901,0.685018
-8.19156,3.98115,-0.29751,-0.0189765,0.836703,0.837381
-1.81204,-1.95591,-3.62852,0.590316,-0.407723,-1.05895
4.37861,-0.368797,3.18504,0.298785,-0.328723,0.480569
-2.40057,1.56206,3.65465,0.663732,0.252305,0.149493
-1.08661,-2.51416,1.20186,0.225435,0.480478,0.110998
0.783647,-1.37594,-0.0988194,-0.477334,0.229602,-0.321828
1.98734,-0.355765,-0.780464,0.00109783,0.178693,-0.0239122
1.3761,-0.446603,-1.06744,0.0887916,-0.240311,0.200838
0.0612451,-0.167301,-0.739747,0.0456671,-0.256458,0.289239
1.05562,-0.535828,-0.307323,-0.0356776,-0.0874329,0.00119483
1.69919,0.333381,-0.206911,0.0281703,0.725138,-0.114005
0.0242787,-0.243943,-1.21271,0.282811,0.116906,-0.396953
4.5097,-1.34765,-0.639578,0.471173,0.219619,0.101127
6.7852,-1.72549,2.35236,0.168651,0.157036,0.191789
1.60487,-0.352212,0.474577,-0.532092,-0.0775341,0.484846
-3.48372,1.43529,-0.887351,-0.378604,-0.0551391,0.340458
-3.23194,0.482019,-1.63883,-0.169243,-0.30877,-0.165952
1.12302,-0.549372,-0.0826108,-0.219257,-0.167592,0.0156758
1.29347,0.0212656,-0.495955,0.382361,0.355624,0.0680976
-1.23764,0.7646,0.774024,0.179095,-0.0277826,0.000239372
1.57238,1.60252,1.63601,-0.0890157,-0.0255694,0.442665
-1.23514,1.00573,-0.611171,-0.280225,0.306787,0.389365
-0.882422,-0.662983,-1.16745,0.215273,0.106626,0.176955
-3.85751,-0.170647,0.538424,0.061281,0.157401,-0.272023
-1.10888,0.0962182,-2.044,-0.387639,0.709348,-0.392634
1.14404,0.691855,-1.31075,0.0428403,-0.653258,0.0199636
0.164159,-0.460238,0.994491,0.10854,-0.815837,0.104731
-0.248971,-1.04308,2.87613,-0.0771165,0.00238621,0.87136
-4.84403,2.72577,1.01385,0.200561,0.782142,0.870384
-0.66882,1.70578,-0.762104,0.374182,0.863407,-0.990108
1.94633,-1.81754,0.155206,1.40311,0.751486,-0.984817
2.55648,-3.41158,1.48095,0.322307,0.439493,0.273386
0.215904,-1.82096,0.504543,-0.344265,0.372828,0.896545
-1.6506,-0.704219,-1.86775,-0.508118,-0.343759,0.641389
-1.39199,1.2938,-2.0977,-0.365454,-0.77554,0.0500138
-0.94625,-0.302441,0.955121,-0.211172,-0.479586,-0.1796
2.41435,0.740936,1.03787,0.555706,1.18671,0.339733
0.0164133,1.25885,-0.703218,0.302506,0.285343,-0.452559
0.557033,-0.729946,0.256208,0.416418,0.105781,-0.252673
0.504412,-0.468802,0.520361,0.34896,0.126761,0.121735
-0.0309898,-0.871778,1.36077,-0.0785069,0.0782195,0.338319
-0.652272,0.91594,0.828654,-1.17131,0.225897,0.267207
-0.12685,1.88433,-2.26561,-0.24499,-0.0491495,-0.140928
0.262385,2.0256,-1.33338,0.454048,-0.213769,0.106763
-1.79824,0.384585,0.0724149,0.436737,-0.290067,-0.0808762
-1.57699,-1.29692,0.695299,-0.155159,0.168532,0.0652277
-0.94545,1.37003,0.760506,-0.285873,0.427771,0.0724356
0.631596,1.51897,-0.127778,0.137419,-0.0291709,-0.224141
0.503815,0.493771,-0.0222435,0.23477,-0.0930265,0.229968
-0.437199,-0.628076,0.0498887,0.230068,-0.128918,0.134718
0.929464,-1.0349,0.735038,0.118122,-0.131626,0.000719309
0.389897,-1.30665,0.867271,0.0441781,0.177038,0.0358114
0.0513932,-0.874055,0.705066,-0.300284,0.0614066,0.0068028
0.834982,-0.0857287,-0.182854,-0.274086,0.155266,-0.256094
0.893259,-0.229919,-0.758664,-0.0526897,-0.275979,-0.0664121
1.09795,0.0296703,-0.0512015,0.00412494,-0.276154,0.195093
-0.932389,-0.466794,0.436974,-0.166625,-0.300686,0.248377
-1.49331,0.544037,0.980706,-0.689422,0.152814,0.3789
-1.64984,2.49758,-0.424735,-0.0932559,0.287461,0.138795
-0.607324,1.55808,-1.51204,0.337926,0.105312,-0.317134
0.0484672,0.0360832,-1.11293,0.521884,0.0652049,-0.191275
1.31538,-1.45825,0.0949553,0.503408,0.290021,0.0520142
1.79482,-2.31132,1.76799,0.1574,-0.0817042,0.229918
2.54528,-0.529499,2.73367,-0.585856,-0.089655,0.420788
0.153311,1.24884,-0.260305,-0.418386,0.314165,-0.147382
0.578677,0.652041,-3.55314,0.14963,0.153844,-0.0394423
-2.0272,0.410959,-2.04734,-0.00128633,-0.707481,0.0060302
-1.04492,-0.0263793,1.17841,-0.201279,-0.33353,-0.0386441
0.0275446,1.03292,0.821895,-0.0449843,0.572741,0.323816
-3.89645,1.48534,-2.38077,0.341681,0.186849,-0.521212
1.24659,-0.976335,-2.89901,0.397815,0.667154,-0.218229
3.40971,-2.14539,-0.990043,0.324045,0.311515,0.602548
4.42361,0.385767,-0.224829,-0.311977,-0.0378765,0.227232
4.18107,0.72192,0.701634,0.117949,-0.262892,0.286989
1.3425,0.190209,1.45198,0.102992,-0.734338,0.478882
-0.525521,-0.567365,1.13257,-0.378372,-0.99604,0.173731
-2.01956,-1.4075,-0.427513,-0.319616,5.6088e-05,0.286591
-4.97488,0.215772,-1.93211,-0.235706,0.725026,0.421004
-1.08484,1.68504,-1.19518,0.260626,0.498901,-0.478303
1.52012,0.0441031,1.05506,0.400913,0.259156,-0.171662
5.25374,-1.36063,3.86787,0.386212,-0.0699471,-0.226542
1.85163,-0.952451,4.90918,0.22106,0.265863,0.297841
0.899037,-0.72011,1.1421,-0.0263988,0.619665,0.332426
-2.05222,0.0937104,0.389614,-0.621406,-0.376342,0.319513
-2.50855,1.23566,-1.00848,-0.615456,0.074229,0.331287
-2.95507,3.54596,-1.94079,-0.498683,0.314873,0.422318
-2.55982,3.63701,-2.84916,-0.00907403,0.460855,0.259336
-1.25358,1.82536,-2.87739,0.580286,0.184413,-0.199183
1.42564,-0.127988,0.951118,0.53673,0.00560421,-0.24828
6.45542,-0.547709,5.00606,0.711141,0.0499664,-0.523637
2.20611,-1.3495,5.24537,0.897326,0.486522,-0.117489
0.37309,-0.262381,3.66404,0.41965,0.452999,0.0745627
-1.5766,-1.861,1.8796,-0.227357,0.599338,0.0339058
-1.09361,0.381788,-1.83211,-1.41178,0.307673,0.682297
-4.00911,1.4977,-2.69113,-0.488437,-0.121236,0.419665
-3.10026,1.47142,-1.44602,-0.0349897,-0.0188949,0.298249
-3.35938,1.38994,-1.11631,0.0987713,0.264626,0.259158
-1.52875,1.84343,-0.608087,0.293921,0.292804,-0.339634
0.892002,-0.0129847,-0.0976365,0.532951,0.205229,-0.324697
1.69107,-2.31261,0.988714,0.441216,0.447493,-0.183798
1.04243,-2.18174,1.0207,-0.117605,0.361206,0.0229374
1.83098,-1.4593,-0.28027,-0.204738,0.171111,-0.0737728
1.19872,-1.07111,-0.918743,-0.137237,-0.265924,0.162039
-0.0146094,-0.887428,0.359798,-0.417943,-0.454093,0.454973
-1.17935,0.60119,0.202612,-0.404286,-0.113139,0.483956
-1.39596,1.60201,0.0596185,-0.258223,0.0828064,-0.0150244
-0.210916,1.60189,-1.33134,0.168124,0.178685,-0.416774
0.664612,-0.0767558,-1.23384,0.566062,0.242103,-0.245023
2.45744,-2.03194,-0.0594514,0.255033,0.0684651,-0.203695
1.10189,-1.32101,0.908494,-0.674965,0.341965,-0.189
3.90499,-1.48029,-1.61327,-0.00201586,0.0430562,0.10051
2.0025,-0.547952,-0.722533,-0.0571399,-0.480631,0.535666
-4.81341,-0.748531,0.744802,-0.397462,-0.542993,0.300598
-1.61794,0.498484,-0.0772291,-0.165055,0.349283,0.808606
-1.2135,2.58103,-0.162941,-0.406041,0.785714,-0.591282
1.67995,1.10397,-2.42474,0.347919,0.317843,-0.42986
2.93773,-0.115918,-1.87683,0.738026,0.0419475,-0.16766
0.777883,-2.80874,0.313253,0.31828,0.116244,-0.119875
2.52655,-1.70562,1.49008,-0.380198,0.240889,0.403077
4.50922,-0.290615,-1.5279,-0.272542,0.0307666,0.104504
2.4802,-0.0233571,-1.06605,0.120306,-0.657831,0.669574
-8.10171,-1.20076,0.939495,-0.136677,-0.463251,0.26113
-0.851906,-0.0657726,-1.1071,-0.503819,0.442817,0.578823
-0.718333,2.08042,-0.344818,-0.605714,0.302245,-0.125575
-0.0285498,1.05772,-0.898678,0.224619,-0.0336195,-0.511058
0.670179,-0.829301,0.298945,0.429966,0.122334,-0.322903
2.29512,-1.51451,0.724031,0.484206,0.616204,0.113093
1.83076,-2.07606,0.095548,-0.346026,0.610037,0.14371
5.25157,-0.634107,-1.54854,-0.147492,-0.0952727,0.302304
5.34486,0.764416,-0.150114,0.0881455,-0.720782,0.669828
-2.89913,-0.140389,1.1519,-0.388904,-0.68191,0.30605
-5.35662,-1.18965,-0.0738728,-0.139706,-0.0542424,0.580258
-1.84995,2.34618,0.870456,0.0222762,0.30534,0.448789
-2.92775,3.08867,1.06354,0.32978,0.325718,-0.378422
2.12902,0.983306,-0.371922,0.441682,0.00299013,-0.335084
-0.0831227,-2.63251,-0.0714811,0.492338,0.202602,-0.00247264
0.405913,-2.95606,-0.404113,-0.115938,0.270199,0.305172
0.249957,-0.516836,-1.40135,-0.0630681,0.360444,0.120832
4.78549,-0.14428,-2.02465,0.251049,-0.348015,0.00119114
2.72183,-0.290131,-0.192629,-0.0506793,-0.726083,0.431354
-9.29911,-0.208335,1.06641,-0.39658,-0.222029,0.359071
-0.893488,1.94377,0.84566,-0.195326,0.241743,0.620393
-0.610399,2.49683,0.205272,0.284043,0.0671509,-0.213886
-0.325303,0.899452,0.0938236,0.475299,0.000493556,-0.387623
0.469145,-2.30979,0.846289,0.629488,0.362182,0.183275
0.736271,-3.05896,0.148042,0.292806,0.430335,0.220245
1.09056,-1.85263,0.485585,-0.219469,0.357506,0.12143
3.12094,-0.930498,-0.923144,-0.107426,-0.24159,0.14732
0.133302,-0.673722,-0.76077,-0.214217,-0.498472,0.284102
-2.31773,-0.0628355,0.548831,-0.222777,-0.126324,0.499002
-0.768571,1.64407,0.558523,-0.117308,0.0713312,0.364331
-0.553659,1.73838,-0.39434,0.0732031,0.152726,-0.117872
-0.26613,1.25932,-0.555767,0.348952,0.028339,-0.157805
1.79905,0.25699,1.35389,0.567341,0.035624,-0.0144398
1.98494,0.610424,3.18575,0.221976,0.275698,-0.0197642
1.16924,1.685,2.81246,0.0419071,-0.0764815,0.0538411
2.89363,1.47417,2.72092,-0.221771,-0.0692918,-0.163707
1.28192,0.815235,0.886766,-0.240979,0.438531,-0.141204
-0.381787,-0.208376,0.0131822,-0.260709,0.0992178,-0.205667
-0.371998,1.35853,1.15271,0.164188,0.30004,0.21905
-0.53358,1.02567,0.710857,-0.357467,-0.285968,0.133281
-0.355433,1.1684,0.554605,-0.0811714,-0.28017,0.0328533
0.494202,-0.0501712,-0.155515,0.0133468,0.350718,0.0269126
1.59114,0.112387,-0.793532,0.0319423,0.33837,0.0261438
1.81423,0.868194,-0.972821,0.0907859,-0.0755247,0.230823
0.530686,-0.541866,0.28801,0.223487,-0.391804,0.0305722
1.56014,0.838736,1.6174,0.150863,-0.0103454,0.0918341
-0.19031,0.308185,0.448613,-0.43178,0.340824,-0.616835
-0.0561256,-2.09885,0.296978,-0.546661,-0.15679,-0.430825
-2.23024,-0.227258,-1.19883,0.545898,0.213421,-0.0756203
2.17262,0.600268,-0.707974,-0.0464053,-0.221689,0.029617
1.84591,-1.02185,0.039619,-0.0745317,-0.0355751,0.126234
-1.20279,-1.6192,1.64971,0.181073,-0.0574268,0.165546
-2.40454,-0.163536,2.78863,0.00826687,-0.125994,0.380168
-1.58239,2.13236,3.93715,0.191016,-0.0883603,0.0746393
-0.452538,0.880596,2.69407,0.219453,0.15932,-0.176501
-0.824518,0.373748,0.404143,0.0536067,0.129262,-0.209019
-0.792523,-0.164115,0.101107,0.107588,0.217371,-0.231095
0.962924,-0.315117,0.029594,0.232187,0.399467,-0.0515717
-0.237974,-0.608296,-1.38122,-0.206178,0.0671419,0.106
-0.176097,-0.434854,-1.74004,-0.120301,-0.0731584,0.128918
-0.141278,-0.543119,-0.718839,0.388656,-0.202791,0.0724419
-0.478188,0.276928,0.775752,0.303895,-0.166546,0.0402929
0.271752,0.156688,0.756904,0.228004,-0.265407,-0.0457858
-1.74054,-0.41061,1.06183,-0.336764,-0.155499,-0.0405717
0.18422,0.291327,1.96518,-0.0402007,0.199658,-0.050652
0.0733598,0.198432,0.718493,-0.0486933,0.336296,-0.114348
0.153474,-0.431623,-0.972751,0.0620817,0.304942,0.116396
0.0238253,-0.6275,-1.25403,-0.136275,0.118891,0.108664
1.09169,0.00755381,-1.09496,-0.0849662,-0.0730693,0.198869
0.111987,-0.133857,0.0807914,0.257431,-0.182433,0.273973
-1.32575,-0.144447,0.732572,0.0773365,-0.135159,0.167313
0.261637,1.029,1.12516,0.344826,0.032537,-0.0466884
-0.223973,0.280747,1.23611,-0.235479,-0.022085,-0.000264466
-0.526543,-0.376349,0.410124,-0.108325,0.351761,-0.0750395
-0.577703,-0.192345,-0.677874,0.000240445,0.351104,0.00690776
0.63135,-0.135984,-0.910909,0.25355,0.335736,-0.024915
0.805016,-0.100117,-1.09426,0.243976,0.0878107,0.124794
0.803971,-0.239889,-1.61263,-0.187293,-0.0822178,0.170648
0.29187,-0.43786,-0.814061,0.170698,-0.28761,0.232564
-1.57835,-0.326156,0.558647,0.177698,-0.289692,0.26187
-0.285674,0.865218,1.91269,0.427447,-0.0813313,0.324265
0.599479,1.10068,2.55662,0.0140421,0.12836,-0.0953666
-1.83484,0.261592,1.80289,-0.101325,0.508701,-0.32653
0.689687,0.0642408,-0.617097,-0.0284835,0.672743,-0.184616
1.60381,-0.226716,-1.67382,-0.141981,0.391608,0.0368897
1.91504,-0.519118,-1.98595,0.167921,0.1639,0.253123
1.55424,-0.321629,-2.82732,0.11942,-0.0274293,0.417136
0.00646162,0.121428,-1.19592,0.2946,-0.581754,0.514157
-0.283432,0.532109,0.179699,0.105185,-0.482211,0.170681
1.39104,1.4003,1.9764,0.241533,-0.168318,-0.234731
-1.50421,0.14226,1.51108,-0.115622,0.0265822,-0.24129
-0.353106,-0.216032,0.533672,-0.139367,0.400707,-0.203414
-0.536424,-0.383013,-0.350605,0.0217289,0.421396,-0.0386343
1.37853,-0.082627,-1.22899,0.369073,0.43048,0.0732015
0.461783,-0.234649,-1.81802,0.04312,-0.0154662,0.225837
0.618364,0.323046,-1.69817,-0.066275,-0.167638,0.160168
1.16498,0.609982,-0.475684,0.284315,-0.286132,0.0906749
-0.860367,0.562483,0.806659,0.374935,-0.21578,0.104183
1.462,1.21486,1.03016,0.39398,-0.017103,-0.120129
0.590388,0.745888,1.24683,-0.328006,-0.013394,-0.21849
0.250207,0.56129,1.21577,-0.146332,0.194111,-0.216774
-0.696643,0.713425,-0.158517,-0.0304904,0.187849,-0.0766292
1.24015,0.27104,-1.23715,-0.702915,-0.0593037,0.0291331
0.130383,0.404504,0.0795053,0.294821,0.178802,0.200102
0.792642,0.853949,-0.398525,0.516713,0.11933,-0.0114088
2.68157,-0.0849697,-0.172743,0.212637,0.018813,-0.517661
-1.05989,-2.4373,-0.0390136,0.267147,-0.637574,-0.139288
-3.38271,-1.83687,-0.985428,0.493209,-0.641514,0.230872
0.321312,-1.11246,1.31877,0.0318452,-0.56886,0.435749
-0.323106,-0.27804,2.34841,-0.14776,-0.130374,0.439209
-1.75704,0.167552,1.81448,-0.00917828,0.146678,0.311709
-3.61105,0.134457,1.63466,0.504323,0.395217,0.12046
-1.981,0.619887,1.38333,0.170222,0.416518,0.0883511
-3.00416,-0.131543,-0.554867,-0.142783,0.284014,-0.114415
0.685846,-0.0255267,-1.25119,-0.268635,0.141175,-0.108179
-1.83888,-0.339425,-0.423079,-0.0425444,-0.142944,-0.0847541
-2.00983,0.428088,1.03401,0.381853,0.0564496,-0.00229734
-1.25136,0.20834,0.312797,0.286711,-0.198486,-0.0162104
-2.37851,-0.484055,0.934905,-0.46892,0.00100176,-0.060687
-1.71945,-0.0782175,1.173,-0.00890487,0.269062,-0.113527
-1.035,0.208814,0.677947,0.158383,0.387668,-0.209445
-0.362805,-0.14926,-0.381389,-0.248507,0.445145,-0.197975
0.530227,-0.723656,-2.26654,0.328343,0.154622,-0.0109051
0.411492,-0.593712,-2.53387,-0.0284969,-0.131806,-0.0270041
0.0017276,-0.876254,-1.18519,-0.147918,-0.450496,0.0610833
-1.484,-0.90738,0.530715,0.323917,-0.381263,0.114905
-1.39667,0.245802,2.73632,0.67592,-0.0469572,0.12156
-0.86812,0.0586003,0.980849,0.137368,-0.0998475,-0.00330478
-2.77118,-1.2267,0.0172462,-0.192494,-0.134499,-0.0559242
-2.16852,-0.964627,1.70488,-0.147026,0.135139,-0.025327
-0.873776,-0.197019,2.01781,0.127166,0.43135,-0.0234876
1.01386,0.458177,-0.609891,-0.058387,0.279768,0.13466
-0.642891,-0.245486,-1.774,-0.0172652,0.14709,0.000465274
-0.571155,0.0749717,-1.74483,-0.0828162,-0.0922416,-0.129918
1.00494,-0.0808447,-0.982522,-0.00950879,-0.335183,-0.127437
-0.861349,-0.444963,0.733053,0.0482795,-0.317125,-0.116599
-0.485115,-0.0912047,1.61043,0.232071,0.0152349,-0.0642381
-0.671732,-0.573773,-0.153284,0.00428194,-0.314969,-0.0479804
-4.02426,-1.10783,-0.356831,-0.114318,-0.103713,-0.0426677
-3.89063,-1.13331,-0.815597,-0.0944806,0.324476,-0.0308266
-0.975718,0.442023,-1.54465,-0.0987574,0.515957,0.0179878
-1.14668,-0.610183,-2.24257,-0.0656421,0.00218487,-0.0630252
-8.92158,0.208903,-3.9021,0.56785,0.599603,0.0796009
1.24847,5.18128,-3.85032,0.748202,0.501939,0.22616
-0.0331641,3.15227,-3.4616,0.66815,-0.074846,-0.641311
1.37195,-2.1585,-1.43031,0.498504,-0.346887,-0.482525
9.203,-1.4195,3.06354,0.368724,0.500608,-0.0354666
10.1035,5.45008,1.5853,0.15485,0.116711,0.507944
-3.39145,4.44795,0.55082,0.19813,-0.775191,0.131574
0.978168,0.344928,1.80647,-0.0490669,0.232943,-0.459052
-1.77568,-1.16159,0.420152,-0.508474,-0.0881144,-0.3228
-0.186091,-0.353303,-0.924313,-0.0174084,0.453238,-0.465755
-0.894144,-0.661148,-1.34594,-0.0320664,-0.191996,0.129718
-0.881603,0.480237,-0.420535,0.0487116,-0.283911,0.167763
-1.40151,0.76083,0.989256,0.121188,-0.453567,0.249698
0.624815,1.14104,3.04794,0.567644,-0.294583,0.0962499
-1.17245,1.0415,3.98956,0.501859,-0.160179,0.155299
-0.905342,0.96626,3.22711,0.570108,0.281813,-0.032755
-0.877227,0.443865,1.38326,-0.175829,0.227362,0.00963497
-1.77521,-0.202173,1.12445,-0.152805,0.494886,-0.0952936
0.945089,0.405461,0.367823,0.365389,0.788866,-0.172106
1.07486,0.360975,-1.80249,-0.0212945,0.512215,-0.137088
0.842095,-0.956865,-3.54707,0.0904996,0.0240191,-0.0212146
0.126381,-0.712275,-3.87401,0.218407,-0.298104,0.0144834
0.246421,-0.779223,-1.79072,0.594966,-0.545511,0.0995908
-1.0619,-0.329978,1.03927,-0.00575608,-0.608463,0.0906721
-0.252574,1.15394,3.32343,0.513425,-0.237214,-0.205003
-0.043748,0.923215,2.80751,-0.375804,-0.339279,-0.119686
-2.35609,-0.299688,2.52899,0.345948,0.359083,-0.216627
0.534755,-0.0974431,0.928349,0.269592,0.873412,-0.119514
0.469533,-0.111745,-1.78032,-0.159161,0.433722,-0.150922
1.06974,-1.34146,-2.86206,0.0925652,0.00608388,0.115982
0.157285,-0.955187,-3.49515,0.0577503,-0.336876,0.0990465
-0.486917,-1.19039,-1.44248,0.621975,-0.571002,0.207341
-1.4516,-0.746848,2.54809,0.426181,-0.401936,0.0318371
-0.373716,0.385585,3.09076,0.493242,-0.338161,0.0938355
-2.40994,-0.504388,3.34213,-0.20593,0.031036,0.144933
-4.58401,-1.53522,3.00625,0.0905496,1.1813,0.372776
0.54355,1.22188,-1.46068,-0.242377,0.753142,0.233928
2.14833,1.32866,-3.23005,0.317838,0.435801,0.00698656
2.00388,-0.345022,-3.18235,0.107423,-0.556258,0.0975706
-3.30997,-1.21978,0.0760866,0.73561,-0.993415,0.0154093
-2.87358,-1.45646,3.58163,0.2855,-0.997594,0.171948
-1.21825,-1.34521,4.38417,1.10623,0.21107,-0.0220824
-5.56839,-2.87976,1.54751,0.319128,0.627335,0.291391
1.03538,-1.16533,0.106961,-0.36137,0.875789,0.533891
1.34355,0.484449,-0.714602,-0.52406,0.855742,1.39669
3.26948,3.61148,-3.93088,1.31224,0.554049,0.5477
7.32924,1.18433,-3.50568,1.01856,-0.795408,0.105439
-1.59078,-0.5789,-0.428077,0.0554615,-1.44816,0.591264
0.0318961,1.77162,2.37385,0.0680673,-0.522063,0.480169
-0.590996,0.715574,1.11545,0.855471,0.0420521,-0.0706822
-1.57653,-0.515869,1.41464,0.130344,0.321144,-0.210435
0.255334,-0.123429,-0.00314935,-1.17368,0.605193,-0.0029338
1.78828,-0.100961,-2.37379,1.17211,0.340011,0.235903
0.65065,-0.701178,-2.79939,0.393319,-0.514601,0.0654964
-2.74744,-0.805022,1.09694,0.212693,-1.36952,0.409337
-1.01086,-0.69082,3.01416,0.00117207,-0.458019,0.292351
0.26926,1.30224,3.44409,0.530374,0.43866,-0.0491279
-0.403026,0.11154,2.13403,-0.0183581,0.398177,-0.270894
-2.55802,-0.635416,1.04206,-0.351438,0.91595,-0.135246
2.4763,-0.142111,-1.17321,0.293667,1.01368,-0.14241
-0.116648,-1.33585,-3.83348,0.397325,0.271421,-0.00916463
0.625662,-1.57046,-5.11773,0.423504,0.0737996,0.166603
0.351928,-0.962912,-3.55207,0.402026,-0.490507,0.381827
0.246251,-0.216817,-0.266483,0.227406,-0.575343,0.316163
0.27246,1.10536,2.03716,0.114451,-0.490162,0.33364
1.12862,3.40383,4.06193,0.238155,-0.145526,-0.000162542
1.13854,1.52809,2.86037,0.401671,0.267088,-0.390732
1.05128,0.0173102,1.41141,-0.279136,0.38252,-0.461692
0.54278,-1.12905,-0.131246,-0.18051,0.519165,-0.281759
-0.734486,-1.40058,-2.02008,0.33598,0.465033,0.0795085
1.02347,-0.169428,-2.15183,0.212593,0.430697,0.353049
2.7873,-0.0716711,-3.51668,0.533026,0.041684,0.590464
1.35636,0.0845545,-4.59364,0.23385,-0.29724,0.509592
1.04742,0.500495,-2.66146,0.492083,-0.469284,0.417255
1.47766,0.643044,0.850146,0.394583,-0.524245,0.14733
0.396835,2.69491,2.73677,0.191162,-0.472232,0.191986
-0.78242,1.2081,2.91402,0.387537,-0.135857,-0.135466
-2.40968,0.00176023,2.62726,-0.270231,0.192206,-0.0552016
0.81551,0.311292,2.04862,0.0465566,0.913918,-0.0540466
0.147295,-0.733677,-1.44414,0.893541,0.732019,-0.0137294
2.03268,0.00265696,-4.09909,0.561597,0.383471,-0.0431492
2.24012,-1.11752,-4.40944,0.19214,-0.166416,0.123772
0.517074,-2.07687,-3.98764,0.572324,-0.430689,0.365848
-0.543187,-1.15197,-0.877736,0.57276,-0.496831,0.284734
0.00323138,1.63804,2.93768,0.0979683,-0.519384,0.268106
-1.45366,1.35744,4.33157,0.478643,-0.270633,0.0631187
-1.28062,0.948191,3.72586,0.0854056,0.087104,-0.0102646
0.949075,0.820445,1.88769,0.182875,0.661841,-0.287673
-0.557522,0.1793,-0.72188,-0.0544671,0.413876,-0.250695
1.59009,-0.9212,-1.7666,0.539623,0.522439,-0.0814102
0.0438419,-1.37988,-3.8967,-0.232901,-0.223358,0.146779
0.445735,-1.29589,-3.33694,0.257317,-0.312686,0.198643
0.308991,-1.65403,-0.51443,0.571177,-0.385072,0.138989
0.31681,-1.22076,-0.13684,0.237823,-0.165772,-0.0199764
0.0281623,-0.253933,-0.206159,0.0652301,-0.0618015,-0.276782
-1.06269,-0.799565,0.0593373,-0.234316,-0.45245,0.187789
-1.24348,-0.3103,0.606807,-0.301588,-0.151236,0.0481751
-0.0573188,0.938794,0.715337,-0.0459553,0.0691376,-0.0813677
1.8136,1.86013,0.613796,0.140984,0.106504,0.00500119
0.0927617,1.54119,1.34772,0.163635,-0.157125,0.0861042
-0.207991,0.827705,0.652453,-0.176461,-0.298333,0.059698
-1.06417,0.0498966,0.804942,0.234774,-0.191645,-0.0488811
-2.59983,-0.223328,1.49759,0.25844,-0.0980597,-0.00437111
-0.0958669,0.49175,1.61452,0.308172,0.195786,-0.150152
-0.595995,-0.383382,0.0220576,-0.551875,-0.0998609,-0.052389
-1.67505,-0.255381,0.0609936,-0.0330432,0.0773206,-0.0480363
0.69775,0.263245,0.178705,-0.20336,0.0375231,-0.274977
0.0857492,0.370707,0.280424,0.418295,0.0951252,-0.215757
0.603193,-0.540124,-1.1285,-0.206457,0.0125987,-0.209591
0.41931,-1.33051,-1.16039,0.384924,-0.0668287,0.272838
0.0603314,0.290002,-1.28977,-0.0696456,-0.353544,0.351962
0.346139,0.363286,-0.185465,0.107397,-0.246442,0.341998
-0.87477,0.562156,0.00206188,0.193647,-0.214578,0.158168
-2.18328,0.213743,0.556083,0.176195,-0.164549,-0.0880871
0.36788,0.0246948,0.451469,0.156144,0.323998,-0.391548
0.339384,0.0964875,-0.043794,-0.0155925,0.0437903,0.0500213
0.226547,0.0306976,0.158146,0.0150932,-0.0414281,-0.102496
0.743922,0.726046,-0.87228,0.0974731,-0.106917,-0.210441
1.9282,0.632197,-1.49335,-0.0147151,0.513618,-0.108945
1.37661,1.33762,-1.49892,-0.0420739,0.314239,0.196979
1.16652,0.755645,-1.47777,-0.273315,-0.0986308,0.232392
1.38908,0.76781,-1.14473,0.0429671,0.0101799,-0.0533118
0.910574,0.128879,-0.211755,0.0734497,-0.192434,0.0205783
-1.30702,0.287702,1.68823,0.429964,-0.0770525,0.0660754
-2.22511,0.775842,1.88463,0.22846,-0.144406,0.300589
0.0135996,0.744712,1.5449,0.045122,0.0262329,0.23319
-1.82841,0.7015,2.30329,-0.169653,0.0497641,0.134155
-2.25097,0.778048,1.30222,-0.319782,0.262771,0.0873019
-1.89166,0.512303,-0.237555,0.135562,0.484561,-0.128413
0.068688,0.0443002,-1.29563,-0.227475,0.348337,-0.397038
0.850094,-0.612531,-0.280897,0.0830393,0.0638925,0.0529273
0.161215,-0.42242,-1.81686,-0.258607,-0.0580957,0.338709
-0.633295,-0.31046,-1.05449,0.100405,-0.0699577,0.156132
0.158323,0.336646,-0.230876,-0.129751,-0.291303,0.0779437
-0.311962,0.525084,1.64554,0.431895,-0.063412,-0.0310907
-0.704191,0.223668,0.761352,0.152275,-0.175158,0.240511
-1.60331,-0.507965,1.03305,0.108661,0.153373,-0.100703
-0.492478,0.231202,0.884967,-0.310226,0.0106437,-0.102789
-0.146618,0.220446,0.992107,-0.199136,0.252351,-0.18203
1.00913,0.287654,0.219236,0.0892155,0.417979,-0.234085
0.161096,-0.636953,-1.10495,-0.199576,0.150851,-0.106854
0.445637,-0.797982,-1.43834,0.223572,0.0946744,0.155852
-1.04294,-0.85121,-1.97779,-0.0991479,-0.157771,0.0848268
0.51662,-0.655038,-1.51913,0.0120463,-0.30122,0.20385
-0.163932,-0.124329,-0.0901964,0.365752,-0.429317,0.223291
-1.2498,0.246714,2.70801,0.305093,-0.164851,0.03324
0.691528,1.46053,3.12838,0.264503,0.0347384,-0.0774434
-1.40723,0.37414,2.20656,-0.0896584,0.181639,-0.0991096
0.00840803,-0.170865,1.47175,-0.164121,0.590387,-0.214919
0.18724,0.119856,-0.186625,0.266588,0.573369,-0.0993088
0.398884,-0.693107,-1.9606,0.245274,0.4461,-0.189562
2.29122,-0.51026,-2.86929,0.2727,0.237448,0.1075
0.772781,-0.865417,-3.20816,-0.0583556,-0.203968,0.185057
0.68419,-0.70332,-2.17956,0.204738,-0.291651,0.293317
-0.0851397,-0.248609,-0.266457,0.327398,-0.471502,0.291983
-1.24527,0.658562,1.82495,0.468368,-0.345304,0.252129
0.478021,1.7546,3.21221,0.44926,-0.122086,-0.023223
-0.660768,1.02801,2.60472,-0.0391006,-0.0514511,-0.287706
-0.253371,-0.136524,2.05927,-0.0722815,0.513524,-0.380789
0.561637,-0.275794,-0.261724,0.0934881,0.545587,-0.0477367
1.55552,-0.645133,-1.51424,0.566218,0.640433,-0.264565
2.23942,-0.744445,-2.42242,-0.142026,0.162231,0.187301
1.02924,-1.67555,-2.12175,0.237221,-0.0537725,0.405438
-0.515501,-0.598792,-2.17725,0.0174137,-0.141587,0.384421
0.993842,1.5716,-1.02748,0.227586,0.00791794,0.20177
1.4591,1.2016,-1.05539,0.337073,-0.106564,0.083405
-1.15723,0.544187,-0.0127733,0.142326,-0.171299,0.186734
-0.101878,0.64927,0.0610147,-0.27941,0.226093,-0.141337
1.64754,0.416273,-0.476902,-0.494885,-0.0557053,-0.0933068
0.232287,-0.131392,-0.29274,0.227624,-0.0681767,0.0623811
0.656184,0.505232,-0.735482,0.0608705,0.138663,-0.186104
-0.665484,0.377805,-0.263076,-0.0728012,-0.0288932,-0.0106212
1.15964,-0.66249,-0.00589167,0.00382328,0.16066,0.299615
-0.128069,-0.311993,-0.490581,-0.138048,-0.0255072,0.254573
0.0297173,-0.110226,-0.493436,-0.00171077,0.0854313,0.235816
-0.1534,-0.107907,-0.468494,0.0244524,0.0456533,0.12546
-0.223904,0.180019,-0.168254,-0.00063777,-0.011165,-0.0168846
0.534724,0.44783,-0.0164984,-0.0707685,0.0652803,-0.0407846
0.671487,0.284873,-0.294864,0.24301,0.156832,-0.109041
-0.901528,-0.302211,-0.118515,-0.0153982,-0.182338,0.0245981
0.603278,-0.0890271,0.270377,0.0295027,-0.0498519,-0.0201637
-0.348174,-0.48912,0.135853,-0.00833428,-0.112798,-0.0818707
-0.294711,-0.432812,-0.0160312,-0.151343,-0.0263423,-0.0644705
0.101422,0.147387,0.248803,-0.0232713,0.282018,-0.150549
1.07905,0.494946,-0.936837,-0.0766034,0.0971671,0.0150986
0.908538,-0.231199,-0.876139,0.0663316,0.0372602,0.0813704
-0.437338,-0.553838,-0.870539,0.0840137,-0.104544,0.101524
-0.775803,-0.00281188,-0.50249,0.0161971,-0.252676,0.0245196
0.506502,0.997918,0.559996,0.00881109,-0.307954,0.017386
2.58506,2.22857,2.72448,0.22407,-0.074594,0.110974
-0.655129,1.98324,2.74919,0.232244,-0.210177,0.0923809
-1.76817,1.25197,2.5286,0.297755,0.252076,-0.301039
0.119794,0.69709,1.84584,-0.120456,0.341577,-0.231555
0.177075,0.0330508,0.259444,-0.0279114,0.494449,-0.358023
0.442388,-0.873069,-1.61843,0.143276,0.31913,-0.214199
0.988528,-0.847853,-2.23304,0.267557,0.159073,-0.107274
0.992744,-0.771103,-1.71319,0.0498294,-0.125006,0.229073
0.0295279,-0.909485,-0.631427,0.101272,-0.100926,0.29794
-0.219202,-0.186816,-0.418012,-0.0315908,-0.182137,0.248115
0.0770494,0.00357162,0.462265,0.054607,-0.221645,0.155387
-1.77376,-0.211534,0.656529,0.257531,-0.290784,0.301937
-2.81239,-0.218734,1.58758,0.282888,-0.0134896,0.102043
-1.32991,0.248985,2.13928,0.229942,0.0407871,0.0685412
-1.76537,-0.0963663,1.15691,-0.14018,0.0638123,0.0699605
-1.03761,-0.076306,1.33687,0.0115937,0.297079,-0.165227
-0.684714,-0.0350362,0.656257,-0.0959292,0.302422,-0.180584
-0.840469,-0.327216,-0.952585,0.0501199,0.247746,-0.128056
-0.372311,-0.406354,-1.41296,0.294279,0.17633,-0.167264
1.93934,0.181753,-1.90601,-0.0188472,-0.0568197,0.0193272
1.82348,-0.697519,-1.42422,0.296605,-0.206593,0.0711662
-0.853798,-0.945447,-0.809729,-0.00447738,-0.510767,0.172262
-0.956027,-0.103516,1.08413,-0.0505837,-0.388956,0.122266
-1.26918,1.12887,2.5943,0.104001,-0.23182,0.051416
-1.1988,0.830716,3.16491,0.872263,0.184769,-0.0729493
-1.58476,0.0545601,1.41197,-0.336888,0.227828,-0.0720674
-1.43937,-0.769224,0.141061,-0.0484936,0.37245,-0.0546069
0.180937,-0.075252,0.0240317,-0.234746,0.300939,-0.0723472
1.31238,0.204752,-0.0216298,-0.170782,0.337909,-0.151064
1.77439,0.0246683,-0.789082,0.237683,0.381006,-0.124332
1.82545,-0.621915,-2.17048,0.243256,0.23625,0.0837191
1.69255,-0.338387,-1.96874,0.0854347,0.0312321,0.250855
2.10533,0.0937143,-0.867355,-0.231699,0.0100613,0.331821
1.25881,-0.0191376,-0.407157,0.132242,0.0340766,0.374827
0.734571,0.718825,-0.119012,0.477214,0.0523515,0.484139
-0.236234,1.47997,-0.208784,-0.277759,-0.369835,0.312245
-0.178792,0.70895,0.557163,-0.161392,-0.0878462,-0.128159
0.108578,0.545228,0.518703,-0.090961,0.0667217,-0.291668
0.306496,-0.0223053,-0.187397,-0.0247705,0.0937062,-0.246885
0.295823,-0.489526,-1.03916,0.0781735,0.0616086,-0.115973
-0.180107,-0.845165,-0.59203,0.23609,0.0532347,-0.0033105
-0.459151,-0.3376,-0.617735,-0.062722,0.0219064,0.188698
0.0733888,-0.172653,-0.133872,-0.164222,-0.0633137,0.20974
-0.218174,-0.256695,-0.0617636,0.0293345,-0.105438,0.186118
-1.22218,0.0261171,0.57478,0.0389096,-0.151875,0.111955
-1.45874,0.315775,1.79325,0.385296,-0.0250387,0.0608996
-1.80933,0.0568089,1.98914,-0.173963,0.184867,0.0396267
-1.61049,-0.0153778,0.500939,0.0496632,0.264249,-0.0114706
-1.06994,-0.180966,-0.496031,-0.195163,0.125445,0.00715739
-1.05653,-0.346341,-0.377379,-0.0527792,0.0754531,-0.106988
-0.0954679,0.187569,-0.0727366,0.00581014,0.0316283,-0.211322
-0.111308,-0.157043,0.160225,0.0811324,-0.0112062,-0.155649
0.913364,-0.056144,0.271321,0.0716975,0.165947,-0.118793
0.549731,-0.638525,-0.616284,0.0623967,0.0545115,0.0663426
0.212458,-0.647917,-1.24573,-0.150893,-0.0293511,0.148882
0.0478523,-0.460858,-0.63641,0.0173945,-0.0977236,0.235454
-0.571054,0.114749,0.228327,0.199337,-0.123417,0.204745
-0.754226,0.311612,0.93902,0.271846,-0.0927583,0.0837221
-1.1479,0.433519,0.843799,-0.245804,-0.0603531,-0.101142
-0.638742,-0.050599,0.327444,0.0651611,-0.0843091,-0.15783
-0.708281,-0.105543,0.641662,-0.0993984,0.0103876,-0.169124
-0.226989,0.0011149,0.757098,-0.0977333,0.083354,-0.174273
-0.150429,-0.0273808,0.377202,0.139906,0.181545,-0.176813
-0.0550352,0.00809132,-0.0660786,0.0395491,0.215164,-0.121109
1.11238,-0.03549,-0.659756,-0.0984626,0.196844,0.0112448
1.07612,-0.190206,-1.1867,-0.0881408,0.0963884,0.0221492
0.63411,-0.147098,-1.16086,0.0408021,-0.101757,0.129938
0.757858,0.175266,-0.630397,0.0287461,-0.0964813,0.0338789
0.182022,0.000898743,0.198761,0.165912,-0.185399,0.053447
-0.540405,0.771808,0.305382,0.466707,-0.0313303,0.220271
0.412557,0.559421,0.213098,-0.288999,-0.182995,0.0459279
0.0896859,0.408487,1.11357,-0.222866,0.0331023,-0.0576453
0.193764,0.676519,0.497864,-0.105721,0.0795624,-0.0436952
0.51485,0.723199,-0.157264,0.339323,0.158376,-0.0836691
0.82222,-0.48288,-0.677174,-0.156908,-0.0106977,-0.13122
0.086623,-0.449463,-0.212166,0.102309,0.121814,0.0555665
0.943517,-0.0217614,-0.212799,-0.29249,0.0785048,0.101288
0.928405,0.0241193,-0.249482,0.0357226,0.0928026,0.0911012
0.356846,0.114135,-0.332338,0.237761,0.0638303,0.141008
-0.764729,-0.637108,-0.375474,0.148691,0.00255543,0.105296
0.662616,0.487709,-0.371012,0.328889,0.0245289,0.100574
-0.441121,0.147432,0.0373462,-0.323916,-0.174158,0.0616274
0.597606,0.334135,0.353081,-0.214287,0.155866,-0.195397
0.333122,0.172235,0.505928,-0.0114351,-0.0710556,-0.135291
-0.442474,-0.653235,-0.295097,0.450972,-0.0205805,-0.0886799
1.63443,0.0771782,-0.144609,-0.154702,0.140169,0.154635
1.98648,0.185402,0.809061,0.0427768,0.196911,0.125068
0.989087,-0.0581812,-0.250857,-0.173736,0.176014,0.225146
0.548976,-0.137078,-0.965716,0.0936646,0.172523,0.196979
-0.795123,-0.670225,-1.00041,0.508239,0.03179,0.13208
-2.35071,-0.352583,-0.84269,-0.283818,-0.20078,0.121795
2.07849,0.709227,0.469448,0.0326577,-0.0962867,-0.170104
-0.235632,0.326084,0.886374,-0.17184,-0.169634,0.104726
0.352943,0.409379,1.1263,-0.063656,0.16602,-0.0652251
-0.0857956,0.298975,0.109279,0.315069,0.189665,-0.0478448
0.36335,0.0750916,-0.666487,-0.212212,0.119035,-0.130893
0.237134,-0.545798,-0.870211,0.0160885,0.0350952,0.0173355
0.451981,-0.312484,-1.13376,-0.0575178,-0.0523212,0.0493898
-0.534171,-0.585764,-0.84613,0.0186154,-0.200541,0.13105
-0.64286,-0.331001,0.0204599,0.302514,-0.223929,0.0837222
-1.24611,-0.333309,0.882591,0.0665205,-0.226215,0.0715178
-0.847854,0.0236663,1.16597,0.13312,-0.146911,-0.0125644
-1.02379,0.126605,1.31316,-0.163334,-0.0339726,-0.0146245
-0.976539,0.227073,1.36611,-0.041862,0.112469,-0.110625
-0.756053,0.265912,0.459572,0.112129,0.183113,-0.152535
-0.393788,-0.148941,-0.216984,0.0616134,0.185488,-0.247591
0.00122929,-0.665052,-0.752794,0.15453,0.141497,-0.12992
-0.408622,-1.04214,-1.54788,0.0188115,-0.0723139,0.0395461
-0.128952,-0.674177,-1.14,-0.00103694,-0.160166,0.100892
-0.627516,-0.304496,-0.0886402,-0.0107954,-0.295952,0.17337
-0.637415,0.291742,1.23127,0.138188,-0.192244,0.0791622
-0.889844,0.314568,1.95779,0.288205,-0.0191019,0.0576506
-0.688025,0.295586,0.96394,0.193264,0.0998967,-0.0763144
-0.796497,-0.155784,-0.0293343,-0.0640037,0.0661887,-0.0156955
-0.550906,-0.18817,-0.116886,-0.186259,0.0729095,-0.0460101
0.534005,0.274917,0.0572606,0.199154,0.0939694,-0.0360171
0.871355,0.415209,-0.203086,-0.217,-0.0257123,0.0158996
-0.971965,-0.303565,-0.315377,-0.163228,-0.139956,0.178863
-0.292037,0.157086,0.734468,-0.0265369,0.0350887,0.13292
-0.253994,0.203959,0.677677,-0.00539398,0.0478334,0.0777366
-0.715282,-0.208244,0.54934,0.0615515,0.0809262,-0.0649679
0.0410686,0.294318,-0.0568978,0.0718796,0.169405,-0.211609
0.150934,0.0922311,-0.731503,-0.0874512,-0.0687679,-0.176569
-0.655886,-0.214199,-0.386359,-0.0205203,-0.148601,-0.0963954
-0.0271447,-0.100055,-0.203109,0.0663762,-0.125081,-0.175477
-0.181385,-0.156158,0.0231886,-0.0558153,-0.127215,0.0587336
-0.868463,-0.510799,-0.271976,-0.0771652,-0.0760893,0.0746748
-0.998311,-0.327401,0.0917564,0.0452275,-0.0944546,0.134571
-0.520896,0.0253348,0.427817,0.0385238,-0.0869787,0.0250634
-1.09936,-0.542394,0.496646,0.0232012,-0.162679,-0.0432808
-0.84938,-0.16582,0.927862,0.0361955,-0.000640839,-0.0540903
-1.10752,-0.2443,0.529941,-0.0386192,0.0277012,-0.0379734
-0.461219,0.0727309,0.068734,-0.0914032,0.0754119,-0.0937809
0.547065,0.784442,0.0572098,0.13896,0.0558247,-0.220962
0.343324,0.123857,-0.277966,-0.35097,-0.0585025,-0.170933
-1.2207,-1.0438,0.206686,0.0380321,0.0836807,0.024104
-0.241802,-0.223171,-0.452066,-0.0149569,0.030656,0.102623
-0.510935,-0.0534656,-0.0374788,-0.0264121,-0.0721645,0.0973479
-0.585563,0.00242784,0.128558,0.055703,-0.0678652,0.0656908
-1.9921,-0.615368,0.529035,0.402108,-0.0412917,0.143418
-1.01397,0.0358386,0.112848,0.164757,-0.0925112,0.0650996
-1.70345,-0.420167,0.493592,-0.135359,-0.0953214,0.0102448
-1.38783,-0.23312,0.69336,-0.143009,0.0303877,-0.0229809
-0.779748,0.233817,0.420154,-0.0516157,0.032616,-0.0680691
-1.20939,-0.461088,-0.0919409,-0.126995,-0.0166745,-0.0247397
-1.65747,-0.544665,0.177238,0.0563999,0.0507206,0.0778431
-0.759233,-0.000642517,0.130064,0.00746256,-0.0507909,0.0788299
-2.04666,-0.246161,0.280693,0.0159457,-0.15295,0.0984993
-2.18637,-0.584483,1.0025,0.263486,-0.0346977,0.113333
-1.81634,-0.0181703,0.645488,0.102772,0.00641243,-0.11537
-1.37064,-0.327834,0.904522,-0.180791,0.0101275,-0.142616
-1.19795,-0.0733035,0.538109,-0.0906233,0.159294,-0.227336
-0.0587821,0.122395,0.544311,0.149429,0.155418,-0.298818
-0.190549,-0.83868,-0.556863,-0.0653757,0.0789048,-0.178474
0.156514,-0.684161,-0.619607,0.111749,0.135889,0.0201827
0.337498,-0.219435,-0.508686,-0.227769,0.0356182,0.167717
0.747653,0.154361,-0.37495,-0.0639023,0.0575254,0.217973
-0.0327954,0.342024,-0.296818,0.136531,0.0016955,0.176854
-0.299273,0.419272,0.391903,0.0810058,0.0374917,-0.0121982
-1.42788,0.821774,-0.217539,0.104267,-0.0204911,-0.00697523
-1.50054,-0.214409,-0.872462,0.0456802,0.0666386,-0.268456
0.62531,-0.0513109,-0.146494,-0.107106,-0.0881372,0.200734
1.47502,0.46468,0.247597,-0.277301,-0.065522,0.153758
-1.34481,-0.372367,-0.11653,0.245031,0.103801,0.0359412
2.39005,-0.0330327,0.073684,-0.323056,0.0633203,0.0538401
4.51639,0.840895,0.459552,-0.345035,0.316978,0.0912254
0.82475,-1.40003,0.1846,0.881754,0.112924,0.38351
-1.70443,-0.49241,-2.3352,-0.196065,0.0253176,0.225508
0.166212,0.104521,-1.02856,0.176683,-0.102867,0.231024
-0.639048,0.851855,1.44238,0.13577,-0.0560848,0.16997
0.040232,0.463937,1.03502,0.532958,0.0705819,0.0590811
-1.50716,-1.1826,-1.71349,0.0921866,-0.260077,-0.467644
-2.08766,-0.677943,-0.477398,-0.269203,-0.378515,0.0200915
0.331011,0.118266,1.40483,-0.192002,-0.0504541,-0.07269
-0.84551,-0.00630893,1.73886,0.333321,0.0706484,-0.175393
0.745867,-0.140315,-0.290776,0.0206711,0.395768,-0.179588
-1.41547,-1.52776,-1.13822,0.105632,-0.0829552,0.0297789
-0.816965,-0.707919,-1.79839,-0.115262,-0.173244,0.108382
-0.96056,-0.964468,-0.130485,-0.0270487,-0.349877,0.134456
-0.695804,0.110151,1.81773,0.161195,-0.19543,0.109048
-0.395054,0.416132,3.43985,0.487102,0.114194,0.039856
-0.384834,0.590175,1.57004,-0.0966188,0.336045,-0.193395
-1.59375,-0.394985,-0.94109,-0.114681,0.0469998,-0.00338721
-1.34755,-0.270324,-0.406752,-0.0761943,0.237435,-0.141166
1.84111,0.435745,0.352796,-0.300205,0.195303,-0.330088
0.371367,-0.417247,0.00557674,0.281098,0.119049,0.0112984
0.20991,-0.364066,-0.806325,0.463551,0.180748,-0.0877459
1.44046,-0.0904098,-1.38366,0.128244,0.0243093,0.0821432
0.383987,-0.560467,-1.25635,-0.20907,-0.204099,0.0749582
0.123492,-0.617604,-0.446005,0.0504028,-0.254883,0.246248
-0.726358,-0.246495,0.660662,0.169446,-0.230415,0.279496
-0.457654,0.456174,1.87728,0.379036,0.0348745,0.0782306
0.0183714,0.181832,0.968384,-0.166169,0.0133848,0.0217445
-3.71119,-0.0491985,0.406736,0.00934482,-0.209493,0.0218484
-0.558173,-0.0743591,2.04275,-0.299893,0.22214,0.0825235
0.734052,0.300857,2.14772,-0.281935,0.594624,-0.243777
-1.38399,0.00319474,-1.00059,0.600895,0.30412,0.0169945
-1.07979,-0.196828,-2.85404,-0.329051,0.335903,-0.458149
-0.759095,-1.25532,-2.04999,0.0817278,-0.45932,-0.115582
-0.226129,-1.47684,-0.213096,-0.055706,-0.336558,-0.071129
-3.2076,-1.96273,-0.199738,0.379861,-0.406978,0.228222
-1.92008,-1.46998,0.533773,0.527151,-0.153604,0.379863
-9.10314,-2.66329,1.63007,0.340461,-0.191934,0.173633
-2.06031,-1.98855,-0.418582,-0.367747,0.957407,0.31408
0.845948,-0.618894,-0.260588,-0.512513,0.111615,0.537296
0.636714,0.0407525,-0.0295228,-0.176632,-0.0463829,0.665509
2.1315,1.59269,0.522673,-0.00618726,0.0516016,0.591012
1.56085,3.37181,-0.627829,0.545123,0.0117013,0.150784
1.92215,2.96722,-0.932633,0.344604,-0.106318,-0.215219
0.247486,1.40101,-0.561202,-0.0537438,-0.412099,-0.151892
0.494126,0.637503,0.304774,0.224645,-0.285514,0.0536498
0.481108,0.0981316,1.56151,0.472113,-0.174205,-0.180022
1.35411,-0.154172,1.82071,0.348992,0.107016,-0.39717
0.713291,-1.32181,1.49466,0.0895635,0.182867,-0.319596
1.46861,-1.86849,1.34504,-0.223217,0.266739,0.0359363
0.157989,-0.977575,0.187911,-0.147907,0.249029,0.369645
-0.121092,0.905435,-0.680105,0.148879,0.122418,0.451136
0.867923,2.05975,-1.10272,0.0442044,0.128044,0.250035
-0.540109,2.43626,-2.64472,0.566731,-0.019069,-0.369277
0.548033,0.731724,-1.37951,0.0916242,-0.278439,-0.476172
-0.0428157,-1.18953,-0.765594,0.201249,-0.499088,-0.278141
-1.51134,-2.35781,0.0100399,0.585116,-0.486924,-0.134598
-2.21752,-3.04938,1.89556,0.218602,-0.423958,0.132747
-3.89428,-4.02696,1.68513,0.495014,0.0153939,0.38433
-3.12518,-2.89539,-0.230781,0.00854206,0.0733406,0.490828
-2.35049,-2.49878,0.279198,-0.0305265,0.0276961,0.548094
0.755303,-1.12719,1.01916,0.73232,0.20885,0.54238
-0.69705,0.552357,-0.0335608,-0.329787,-0.0145978,0.111012
-0.2104,-0.0272831,-0.207479,0.0415339,-0.0761626,-0.00559938
-0.828023,-0.3845,-0.113453,-0.130643,0.0828969,-0.128091
-1.15028,-0.567918,0.537215,-0.037792,0.22885,-0.0224049
0.329945,0.200907,-0.205867,-0.148302,0.186282,0.0160057
0.681009,0.424635,0.216034,-0.296686,0.172073,-0.0513536
2.90874,1.26222,0.63457,-0.00940973,0.206643,-0.06055
0.0744641,-0.367204,-0.827115,0.410969,-0.191427,0.208331
-0.303652,0.343057,-1.04576,-0.181345,-0.114379,0.111767
1.06134,-0.206258,0.619012,-0.11432,-0.182687,0.176934
0.299017,-0.167951,1.42579,-0.0236266,-0.0688142,0.191429
0.802805,0.79329,0.95026,0.389708,0.236322,0.101592
0.656388,0.946268,-0.206273,0.194969,0.258583,-0.132992
-0.474242,0.0243005,-0.144695,-0.424983,0.272106,-0.336383
1.75654,-0.186836,-0.190533,-0.200456,0.322464,-0.0859844
1.32805,0.182359,-0.606951,-0.0120159,0.205332,0.139287
2.62428,0.683392,-0.0219755,0.0926487,0.406491,0.223166
3.30365,0.130402,-0.754144,0.11223,0.327659,0.495785
2.62312,0.6491,-2.52727,-0.126139,0.0724099,0.45081
1.64146,0.677513,-2.58562,0.316531,-0.114677,0.581928
-0.308115,1.17563,-0.797949,0.50684,-0.404897,0.268427
2.007,1.24848,0.937926,0.134075,-0.306574,-0.217201
3.29843,0.822304,1.51715,0.183655,-0.150246,-0.651625
-0.164796,-0.388643,0.85814,-0.212025,-0.114978,-0.298901
0.0770116,-0.596534,-0.0242822,-0.274811,0.417162,-0.114499
1.36926,0.205726,-0.665713,-0.0166955,0.655164,0.0140903
2.35807,0.734506,-2.67092,-0.0311102,0.335657,0.187748
0.882791,0.0575503,-2.53422,0.33278,0.150613,0.387342
1.71088,0.917816,-2.58051,0.0557156,-0.256965,0.410386
1.69275,0.602354,-0.951281,0.341739,-0.463307,0.246151
0.9221,0.81989,0.940916,0.379421,-0.44302,0.251692
-0.720144,0.453506,1.45855,-0.0594151,-0.139057,-0.165307
-1.03863,-0.610925,1.03688,0.129156,0.0457844,-0.194746
-0.81697,-0.607745,0.507735,-0.164942,0.125258,0.0189927
0.0118722,-0.228054,-0.081404,-0.285672,0.260823,0.02652
0.370834,0.272375,-0.857933,-0.068401,0.238097,0.0852505
0.934531,0.644394,-1.06231,0.687376,0.331999,0.0833936
0.509208,0.868771,-1.82609,0.0516087,-0.157095,0.0915532
0.078669,-0.0813009,-1.04051,-0.167241,-0.303224,0.00681424
-0.0440396,-0.0189568,0.349751,0.158632,-0.35739,0.0604032
0.396928,-0.21474,1.58887,0.265916,-0.314268,0.103367
-2.86532,-1.08917,2.25758,0.572945,-0.13655,0.0835587
-2.28163,-0.755241,1.65927,0.154081,-0.0995053,0.0750746
-2.14648,-1.16841,1.84516,-0.110399,0.107136,0.173171
-2.13087,-1.07121,1.24091,-0.0534748,0.288294,0.125654
-1.63311,-0.179279,0.832054,0.189087,0.356942,0.144931
0.526632,0.718942,-0.146519,-0.103719,0.212446,0.0656727
-0.678657,-0.313622,-0.443502,-0.27314,-0.0987877,-0.0866878
-0.787813,-0.705781,0.0469123,0.0726913,-0.145769,0.00458777
-1.23288,-0.64216,0.806638,0.106701,-0.186512,0.102707
-1.31073,-0.672603,1.68908,0.19303,-0.0215272,0.155097
-1.58684,0.351368,1.92929,0.135794,0.12177,-0.0952965
-0.191759,0.35299,1.62786,-0.122222,0.213155,-0.0981542
-1.25077,-0.124394,0.619441,-0.22179,0.38836,-0.183467
0.0988973,0.233617,-0.537095,0.303633,0.362787,-0.13862
0.635104,0.758894,-1.07592,-0.272971,0.246919,-0.153671
-0.180115,-0.551493,-1.86647,-0.149617,-0.271416,-0.0611091
-0.217209,-1.01551,-0.90093,-0.0450081,-0.263782,0.0059588
-1.66892,-0.595576,-0.841775,0.10371,-0.331697,0.205312
-0.602848,0.13254,0.611654,-0.282676,-0.228042,-0.101788
-0.924117,-0.682736,0.949092,-0.0660031,-0.026059,-0.226435
-0.862138,-0.556701,0.967738,-0.261436,0.0797799,-0.252719
-0.032287,-0.773125,0.957291,0.103763,0.199753,-0.194786
-0.678308,-0.703176,0.3625,0.230501,0.202552,0.0463656
-1.11526,-0.405824,-0.213753,-0.290975,0.00986257,0.117585
-0.0749382,-0.220794,0.368042,-0.137002,0.00553596,0.0885956
-0.483796,-0.559722,0.626205,0.141741,0.0547091,0.0440875
-1.26292,-0.640818,0.949688,0.312625,0.102471,-0.00865531
-1.0335,0.060495,0.764365,-0.0920193,0.0456528,0.0610456
0.117034,0.146521,0.365307,-0.258386,0.101787,-0.195625
-0.77446,-0.51872,0.124817,-0.178955,0.0430287,-0.153998
0.011087,-0.35142,-0.379772,-0.178439,0.146735,-0.172834
0.207762,-0.195008,-0.646093,-0.0233668,0.184183,-0.163582
1.13088,0.294325,-0.803941,-0.0921917,0.232002,-0.124609
0.581402,-0.197085,-1.06138,0.115775,0.0909224,0.0580367
-0.158405,-0.107222,-1.30513,-0.137227,-0.177646,0.173981
0.621334,0.346843,-0.312564,0.0843505,-0.217674,0.13357
-1.44259,0.207459,0.941378,0.34054,-0.205045,-0.0353737
-0.388675,-0.290252,0.828888,-0.206665,0.0643975,-0.111607
0.044381,-0.402455,0.381419,-0.0930138,0.0383993,-0.138682
-0.446506,-0.589834,-0.0839793,-0.198371,0.0628735,0.0217227
-0.180808,-0.0344086,-0.603715,-0.257378,0.258984,0.0498846
0.810804,0.3126,-0.875773,0.0582832,0.200446,0.0217557
0.707362,0.469967,-0.726532,0.037395,0.0964512,0.0565714
0.306104,0.00411029,-0.967551,0.034232,-0.15582,0.126738
0.187299,-0.601356,-0.289878,0.390557,-0.117038,0.121222
-1.60773,0.0513403,0.7783,0.191178,-0.158631,0.212574
1.09917,0.846957,0.615532,-0.0742384,0.0976567,-0.114672
-1.12503,-0.343746,0.462135,-0.337388,-0.166733,0.0492837
0.802414,0.226002,-0.311104,-0.369418,-0.0976004,-0.0054661
0.348155,-0.609588,-0.651426,0.11176,0.0254561,-0.0100626
0.460473,0.163894,0.0651825,0.600064,0.488516,-0.217296
-1.38752,-0.552858,-0.115522,0.353143,0.101237,0.0580243
0.175821,-0.357763,-0.271201,-0.229482,-0.254723,0.200803
-0.168447,-0.49727,0.435728,-0.0787971,-0.110772,0.179954
-0.129671,-0.257492,0.127675,-0.0815954,0.0638362,0.0400506
0.431465,0.594444,0.699077,0.277891,0.469377,-0.234397
0.385924,0.427144,-0.308626,0.0135746,-0.0404971,-0.188696
0.0363114,-0.128142,0.254602,-0.281159,-0.219512,0.0331438
0.597126,0.238321,-0.0747569,-0.202323,-0.0889971,0.0776262
0.456266,-0.163842,-0.430605,-0.0388744,0.0673299,-0.0388914
0.0845143,-0.297032,-0.40015,0.239442,0.228195,-0.192074
-0.52206,-0.58837,0.110187,0.438525,0.238266,-0.136629
-0.540797,-0.264611,0.155031,-0.197385,-0.148934,0.186855
-0.0325097,-0.204238,0.690765,-0.140026,-0.209376,0.208422
0.0284309,-0.0650673,0.890959,0.0105883,-0.0400639,0.108266
-0.492651,-0.00443268,0.521069,-0.0287576,0.0293121,0.138639
0.365192,1.4522,0.0521999,0.181228,0.363052,-0.289898
0.0542494,0.5091,-0.0101639,-0.273633,-0.195599,-0.00172859
0.964619,0.934995,0.200968,-0.4799,-0.156831,0.0483
0.760232,0.986916,-0.128148,-0.0470358,0.0431504,0.0162545
0.624642,0.457816,0.230567,0.659439,0.245772,-0.114785
-0.775743,-0.0613499,0.225485,0.342324,0.165824,0.00884414
0.125181,0.00435357,0.314978,-0.138046,-0.0121734,-0.0101064
1.00218,-0.225911,0.350738,-0.377936,-0.0278343,0.124474
-0.0331383,0.0160396,0.209601,-0.141285,0.172143,0.0380213
-0.377077,-0.29368,0.0959992,-0.16517,0.0389794,0.0484557
-0.649511,0.712717,0.0617414,0.400544,0.118481,-0.122016
0.447302,-0.136195,-0.506676,-0.0134264,-0.142041,-0.139437
-0.778183,-0.137581,0.00266657,-0.24438,-0.127289,0.0284778
0.422621,0.438557,0.125229,-0.112613,-0.121154,0.0106389
0.013165,0.275369,0.0894948,-0.0412483,-0.0257967,-0.00781119
0.197421,-0.0577102,0.284666,0.265219,0.165316,0.0113216
-0.410371,-0.0787442,0.210942,0.197728,0.194365,-0.0658407
-0.606794,-0.295826,-0.0095569,-0.17782,-0.0486725,0.0328445
-0.526503,-0.544318,0.254126,-0.274145,-0.0493203,0.0508844
-0.408888,-0.289338,0.121495,-0.153513,0.104991,0.00126225
-0.684471,0.386294,0.303061,-0.0696663,0.0689881,0.0175685
-2.51173,0.886343,0.806898,0.323011,0.0651673,-0.119739
-0.602377,-0.114219,-3.12468e-05,-0.332563,-0.0660972,-0.0549557
-0.209957,0.026246,-0.138372,-0.255652,-0.0727889,0.00555229
1.4685,0.110813,0.0789173,0.031372,0.078793,-0.0527122
1.01854,0.200776,0.0178852,0.417162,0.127133,-0.180827
-0.890424,-0.824218,-0.530732,0.262361,-0.077545,0.189333
0.90969,-0.711473,-0.640114,-0.429776,-0.154676,0.224126
-0.063329,-0.265694,0.353421,-0.22403,-0.128533,0.272446
-2.04621,-0.277001,0.359959,0.00117934,-0.017723,0.109758
-0.767735,0.655457,0.252924,0.427216,0.207491,-0.0947952
-0.486829,0.288795,0.221094,0.18701,-0.0648038,-0.353192
-0.355665,-0.196162,0.282424,-0.212404,-0.100306,-0.0426487
1.10904,0.606722,0.68337,-0.0560852,0.0262462,0.0256533
1.51331,0.298638,0.606751,0.0772603,0.00123602,0.0746716
0.15473,-0.0200051,0.447734,0.667722,0.0467088,0.0316261
-0.408101,-0.124319,0.416388,0.741403,0.0668077,0.0922956
-1.19005,-0.0858623,0.078785,-0.353713,-0.0227787,-0.0520844
-2.22087,-0.797604,0.0635162,-0.236045,-0.0425637,0.0799899
-2.70071,-0.558862,0.159535,-0.061438,0.0398133,0.085933
-0.0300712,0.405254,1.04369,0.771262,0.197884,0.0154126
1.42432,0.042348,0.00333792,-0.25271,0.111627,-0.474944
-0.643336,-0.443904,-0.405127,-0.336283,0.0388892,-0.0522004
0.58403,0.390523,0.215897,-0.268039,0.210374,-0.0500095
0.0474243,0.125641,-1.82941,-0.109977,0.124829,0.171377
-0.0836376,-0.0252991,-1.4603,0.878407,0.119971,0.078638
0.434302,0.0990322,-0.385379,0.500295,-0.121753,0.0589187
0.65609,0.260365,0.33988,-0.100021,-0.260142,0.0374576
-0.764222,-0.320773,0.928116,-0.290289,-0.173942,0.104319
-0.602618,-0.339599,1.22694,0.106231,0.107689,0.12174
-0.596621,-0.43126,1.34722,-0.0622655,0.141462,0.0869806
0.624182,0.688422,1.37979,1.19281,0.524453,0.0889159
1.32572,0.433423,-1.1973,-0.0933395,0.102002,-0.402257
-0.617894,-0.62891,-1.1229,-0.249417,0.0528677,-0.101131
2.58342,0.27332,-0.5804,-0.0883679,-0.102735,-0.170241
-0.521499,-0.096463,-0.19644,-0.0871089,-0.152524,0.0915813
0.189391,-0.725707,0.0710039,-0.268958,0.0926973,0.111565
-0.370109,-0.687045,-0.663229,0.287571,-0.126552,0.246826
-0.143979,0.0672016,-0.512346,-0.119298,-0.178529,0.171233
-0.763939,-0.352154,0.0874511,-0.0519444,-0.221055,0.133305
-0.843229,-0.169721,0.531513,-0.203703,-0.188721,0.120866
-0.698378,0.247801,1.73135,-0.0742092,-0.0295219,0.0741847
-0.529993,1.551,1.79832,0.125931,0.187432,0.0878575
0.525022,-0.245478,0.561703,0.377994,0.435315,-0.359893
-0.669531,-0.236422,-0.884165,-0.0286098,0.0332912,0.0390997
1.30499,0.0756817,-0.533687,-0.445624,0.265681,-0.306852
1.30552,-0.867865,-0.716683,-0.0959502,-0.0122608,-0.00520539
0.580753,0.804857,-1.08176,0.718928,0.0678172,0.0557951
0.554331,-1.05162,-1.057,0.580446,-0.100831,0.248287
-1.05308,-0.373408,0.0245347,-0.363689,-0.330929,0.242392
0.0644074,0.471743,0.62264,-0.141598,-0.188714,0.220708
-0.253363,0.654412,1.09893,-0.178983,-0.0692046,0.0453137
-0.100913,0.500079,1.48301,0.343672,0.353616,-0.288285
0.277474,-0.723608,-0.522736,0.270681,-0.0237592,-0.183856
-0.358876,-0.788037,-0.379392,-0.595951,-0.000802308,-0.168857
0.82628,0.0312787,0.133657,0.0518546,0.112258,-0.0775561
0.674276,0.595691,-0.92513,0.841568,0.0123167,-0.0352732
-0.879926,-1.14638,-0.884394,0.742907,-0.0732603,0.193368
-0.661826,-0.840243,-0.432541,-0.395724,-0.327305,0.258639
-1.42547,-0.728004,0.503039,-0.139715,-0.229586,0.295328
-1.31393,0.71233,1.3852,-0.132123,-0.0993432,0.153086
0.0222026,0.338125,1.773,0.930804,0.566126,-0.430619
0.0906874,0.109687,0.0609443,-0.0265099,-0.13979,0.0223778
-0.687577,-0.579808,0.0486132,-0.64307,0.203388,-0.15088
0.862571,-0.231156,0.345978,-0.0764835,0.179563,0.0105459
1.60252,1.75587,-0.464402,0.353328,0.232195,-0.0198293
0.459843,0.228948,-1.82746,0.470723,-0.0433188,0.0517606
0.233111,-0.210981,-1.21644,-0.141568,-0.188984,0.0849358
-0.131915,-0.414082,-0.23352,-0.30694,-0.352931,0.208538
-0.591488,-0.579823,0.0810255,-0.179976,-0.314922,0.236933
-0.895164,1.36366,0.795968,0.055119,-0.254565,0.242012
1.38106,0.962489,2.66405,0.370869,0.497062,-1.02854
-0.749444,-0.569944,1.9961,-0.0211622,-0.073553,-0.141833
-0.744185,-0.663555,0.389776,-0.308116,0.410625,-0.160494
0.694662,-0.281587,-0.466345,-0.31116,0.425015,0.0308798
0.673376,-0.601399,-1.32445,0.0968568,0.207554,0.194595
0.0532937,0.0200589,-1.72933,-0.215092,0.0542418,0.159782
1.98325,0.517646,-1.00734,1.34002,0.168209,0.106819
0.770955,0.0181702,-1.27682,0.842622,-0.286791,0.11603
-0.515897,0.193362,0.00150363,-0.353625,-0.379326,-0.0209408
-0.376828,0.0387316,0.820389,-0.419628,-0.263001,0.146834
-0.663847,0.00314135,1.11337,0.0505304,-0.0215519,0.163042
-0.453683,0.894114,1.25476,0.0497782,0.139285,0.0554268
1.10587,0.619548,0.686481,0.839449,0.419633,-0.26767
0.14681,0.00300455,-1.05682,-0.233652,-0.044267,-0.0796928
0.203035,-0.273865,-0.538753,-0.523362,0.132013,-0.139371
1.94187,-0.0306217,-0.573351,-0.0490973,0.0534928,-0.0778975
0.513855,-0.751782,-1.25997,-0.0409574,-0.114522,0.0771322
-0.495099,-1.02957,-0.508687,0.721178,-0.0207207,0.206741
-0.226429,-0.236622,-0.196562,0.0910305,-0.151834,0.185634
-0.421086,-0.0209016,0.908224,-0.341198,-0.164564,0.192839
-0.905056,0.363758,1.36976,-0.0530748,0.00322333,0.183548
-0.757333,0.199501,0.964301,-0.09248,0.0918223,0.0610233
-0.0970306,0.652204,0.515088,0.718945,0.264131,-0.00545144
1.30092,0.362911,0.00720612,0.0170115,0.153024,-0.456432
-1.12765,-0.557673,-0.312178,-0.287291,-0.0282057,-0.0333024
1.12011,-0.0927746,-0.430716,-0.472084,0.141012,-0.141126
0.635904,-0.469119,-0.831825,-0.0194926,-0.00969821,0.0350683
0.462234,-0.196191,-1.21141,0.796909,-0.0354267,0.031199
-0.111289,-0.314836,-0.891182,0.482855,-0.183716,0.173478
-0.255021,0.256306,0.679469,-0.156701,-0.223031,0.127681
-0.850611,0.134119,1.40778,-0.185783,-0.109233,0.143035
-0.953572,-0.0246927,0.953266,0.0230792,0.0601089,0.0647684
-0.431806,-0.159001,0.731716,0.00565523,0.149978,-0.00580102
-0.539441,0.387599,0.501258,0.557187,0.238937,-0.00353819
0.68223,-0.0789921,-0.0691733,-0.00653726,0.174594,-0.413952
-1.08553,-0.622559,-0.747526,-0.154948,-0.0603158,-0.00789911
0.252906,-0.356514,-0.744239,-0.289627,-0.029725,-0.185259
-0.387829,-0.618251,-0.425476,-0.156144,-0.117311,-0.00280046
-1.14263,-0.981381,-0.106479,-0.32914,-0.223742,0.131077
-2.1579,-0.59772,0.77511,1.54219,0.0439374,0.320393
-0.843438,0.593553,0.249836,0.392135,-0.107775,-0.0734007
-1.38804,-0.306873,0.666057,-0.126603,-0.148071,-0.0195628
-1.66018,-0.674023,1.3384,-0.231405,0.0201264,0.000676095
-1.25284,-0.708415,1.39464,0.0808832,0.20939,0.0858065
-1.84561,-0.155001,0.574677,0.415518,0.259879,0.267007
-1.49797,0.335493,0.221278,-0.208736,0.142854,0.119017
-0.632242,0.25685,-0.394671,-0.0380549,-0.026005,-0.125899
-1.03139,-0.161844,0.0681204,0.124592,-0.24465,-0.233172
-0.593419,-0.346753,0.806053,-0.0879864,-0.109124,-0.282437
-0.829338,-0.24248,1.07908,-0.112042,-0.0502576,-0.119986
-0.853897,-0.179462,1.06469,-0.160038,0.197012,-0.127365
0.0523432,0.542899,0.380664,0.0717973,0.26325,-0.033548
-0.095138,0.146907,-0.726372,-0.0451689,0.229172,0.073212
-0.135689,-0.123785,-1.60303,-0.0172022,0.0715821,-0.00792325
0.304932,-0.00842636,-0.806135,-0.0347503,-0.0712054,0.0026682
0.293643,0.0880104,-0.0300416,0.0520635,-0.137187,0.0280581
-0.100879,0.0240097,0.46252,-0.0157084,-0.0822105,0.0653473
-0.929458,-0.228376,0.549734,0.0237183,-0.0386234,0.12085
-1.36899,-0.133147,0.450244,-0.145736,0.0257206,0.079022
-0.677471,0.16645,0.424178,0.205331,0.0589552,-0.0157887
-1.03451,0.109462,0.0567336,-0.00807828,-0.0328893,-0.0880309
-0.665822,0.103095,0.239791,-0.0269899,-0.0419765,-0.224959
-0.616766,-0.316357,0.462794,-0.0328183,0.0138759,-0.231729
-0.828137,-0.336919,0.219598,-0.0500954,0.0121919,-0.0861324
0.0724958,0.309713,0.208093,0.0581081,0.136809,-0.112074
1.14547,0.273792,-0.321882,-0.431154,0.102107,-0.0592631
-1.21231,-0.561713,-0.215239,0.231458,0.109518,0.0450085
-0.546791,-0.0207101,-0.869079,-0.111703,0.0756133,0.0851346
0.33127,0.265506,-0.524673,-0.0738255,0.0169573,0.0231597
0.148329,0.291241,0.0621203,-0.0296602,-0.0447593,-0.0099988
0.531617,0.25197,0.372593,0.0547621,-0.0390726,-0.0621862
-0.304374,0.0156246,0.466085,0.274999,-0.00998491,-0.0468796
-0.154306,0.229514,0.0624557,0.0784281,-0.0141939,0.0327079
-0.0185896,-0.163199,0.342238,-0.124486,-0.0129165,0.00883448
-0.496289,-0.219546,0.28846,-0.0387872,0.0194767,0.0772524
-0.610983,-0.136664,-0.0116721,-0.0715029,0.0200958,0.0387918
-1.04654,-0.44386,0.0560012,-0.0178944,-0.161456,0.0333463
-2.30532,-0.6258,0.536477,0.214585,-0.161184,0.0925033
-1.98468,-0.782444,0.893418,0.704401,0.0613241,0.112405
-2.11315,-0.376223,0.399883,0.103727,-0.0652879,0.154979
-1.96646,-0.35294,0.339381,-0.0604596,-0.0230144,0.0882578
-1.73127,-0.483192,0.480004,-0.114919,0.0133806,0.105718
-1.51634,-0.238239,0.764499,-0.1445,0.0405752,0.131911
-1.19768,-0.136995,0.76717,0.0509832,0.111078,0.113888
-1.93488,-0.269593,0.97896,0.559972,0.0169227,0.204833
-1.0626,-0.18643,1.26589,0.209718,0.275569,-0.00648046
0.707414,0.49597,0.705023,-0.241553,0.337006,-0.216944
0.58766,-0.160639,-0.374574,-0.113116,0.281292,-0.242312
1.1778,-0.520925,-0.902115,-0.109966,0.296173,-0.142445
1.42083,-0.664065,-1.40779,0.0156697,0.182576,0.0750772
1.66123,-0.628675,-1.8345,0.120459,0.0404957,0.247225
0.733807,0.610558,-0.949578,0.274094,0.111596,0.178676
1.81607,0.625629,-2.24699,0.0361571,-0.0210048,0.329518
0.753389,0.25358,-2.27527,0.110561,-0.0415308,0.1953
0.685472,0.327095,-2.41383,0.00780058,-0.181335,0.214732
0.59207,0.233774,-1.45411,0.4905,-0.272689,0.266093
-0.197771,0.424619,0.438188,0.27833,-0.454083,0.152471
-1.58838,0.504448,2.72642,0.349833,-0.160721,0.0235965
-0.474227,-0.360769,0.783082,0.097238,0.408459,-0.0874155
-0.328799,-0.27929,-0.206285,-0.294815,0.270541,-0.0958221
2.23301,0.29788,-0.736796,-0.485039,0.223346,0.031247
3.87516,0.572696,-1.08395,-0.197678,0.224282,0.0864905
5.15164,0.639641,-0.733427,0.2311,0.210593,0.0837588
-1.02626,-1.35673,0.321629,0.756099,-1.14173,0.630279
-1.21135,0.157358,-0.119465,-0.432647,-0.213082,-0.0919479
-1.54687,-0.241802,-0.0647116,-0.294311,-0.112038,0.0588405
-4.0485,-0.303005,0.505418,-0.0369233,0.178575,0.221177
-5.7119,-0.681076,1.04975,-0.0186184,0.104035,0.332324
1.7951,0.634735,-2.5463,0.260902,0.102306,0.117637
3.78343,0.673088,-2.3564,0.289973,-0.0359055,0.0114053
4.33642,1.80163,-1.21199,-0.0189707,0.0357546,0.0118686
1.40041,1.09514,-0.882913,0.0260089,-0.105469,0.0431616
-2.97765,0.00805617,0.479631,0.0425427,-0.234698,0.211716
-2.9596,-0.0563228,1.54429,-0.0893009,-0.121367,0.0147803
-1.23001,-0.850971,1.12747,0.0499023,0.0703269,-0.261728
0.191816,-1.4049,0.181193,-0.204669,0.244525,-0.22862
0.205536,-1.7339,0.18872,-0.00450194,0.398463,-0.0543361
0.816327,-1.52762,-1.92479,0.139903,0.228854,-0.0768907
2.49168,-2.1704,-2.87275,0.137317,0.0491654,0.120543
-2.02417,-2.87837,-2.84767,0.080842,-0.0577292,0.213191
-5.80727,-2.52905,-3.86203,0.0405872,-0.0344948,0.134942
-3.1809,-1.00288,-4.7286,-0.0366718,0.51923,0.0221761
-3.48666,-0.07905,-3.73674,-0.0177125,0.251651,0.134258
-3.42436,0.653057,-1.04662,0.200841,-0.0117567,0.124166
-4.34584,-0.00263407,1.71505,0.536964,-0.150714,0.23533
-5.566,-0.31073,1.53939,0.374478,0.197131,0.544934
-3.84626,0.732959,1.09138,0.129257,0.0933032,0.559515
-1.2388,0.0781516,0.999612,0.280595,0.48626,-0.329115
2.8753,-1.502,-0.432103,-0.116047,0.712944,-0.553165
2.24825,-0.686457,-0.417304,1.0848e-05,-0.11424,0.376439
1.40006,-1.51294,0.00584991,0.331993,-0.137106,0.0583395
0.934325,-1.97125,0.385309,0.155958,-0.12684,0.0249175
0.549773,-1.47474,0.712938,0.0359986,-0.170079,-0.178444
2.27828,-1.74204,1.31413,-0.0211531,0.173872,0.0744058
3.3973,-2.09132,1.20626,-0.0174496,0.184497,0.385601
0.636589,-1.49192,0.0872617,-0.132868,-0.07393,0.241184
0.0961846,-0.712078,-0.727565,-0.0898525,-0.0828356,-0.0504818
0.301289,0.0853004,-0.354804,-0.00665337,-0.075788,-0.133977
0.878523,-0.201449,-0.374291,0.077903,-0.0842754,-0.146668
0.60562,-0.72965,-0.171019,-0.137869,0.0375681,0.129775
0.086102,-0.500254,0.061677,-0.342192,0.22053,0.0669554
-0.0588022,0.586497,-0.391455,0.112029,-0.0263242,-0.0675157
0.214452,0.523284,0.229678,0.138008,-0.154465,0.0381234
-0.159581,0.298823,0.599416,0.132691,-0.291083,-0.016288
-0.164466,0.113873,0.511916,-0.0256909,-0.109198,0.0544628
0.172732,-0.114351,0.259298,-0.02356,0.139805,0.141358
0.404711,-0.992988,0.644096,-0.121164,0.1873,0.252037
-0.358839,0.135696,0.0783228,0.0647559,-0.070722,-0.185048
-0.324621,0.109004,0.101062,0.161831,0.138934,-0.165155
0.219455,0.0137318,0.221247,0.0793449,-0.00378585,-0.22653
0.225763,-0.235151,0.229296,0.0809706,-0.180972,-0.0651395
-0.53993,-0.371161,0.30958,-0.0275678,-0.201568,0.00308907
-2.29864,-0.736661,0.0606904,-0.145888,-0.143564,-0.0129933
0.00159118,-0.525164,-0.170333,-0.230008,0.0173601,0.110274
-0.295124,-0.312814,0.795194,-0.228404,0.332352,0.373739
-0.654657,1.70805,0.537138,0.0449334,-0.115535,0.146817
0.853236,1.13815,0.265478,0.194238,-0.23006,-0.123384
-0.000993414,0.624405,0.541269,0.128101,-0.321639,-0.122059
-0.344697,0.616253,0.618033,0.00394788,-0.0977091,0.0981512
-0.121914,0.0576606,0.149166,0.0527491,0.152955,0.120851
0.269087,-0.888617,0.405713,-0.040755,0.0579554,0.0908935
-0.528545,0.451254,-0.354941,0.0697936,0.0936802,-0.076593
0.179816,0.0939351,-0.356383,0.240837,0.0616741,-0.245227
0.290044,-0.22277,-0.603935,0.0893331,0.0142805,-0.121549
0.784079,-0.580285,-0.810252,0.150494,-0.193463,-0.233151
0.635553,-1.04182,-0.304575,0.0205954,-0.150664,-0.0956322
0.643776,-1.04298,-0.354755,-0.115548,-0.135389,-0.00278831
0.234508,-0.839024,-0.57023,-0.238338,-0.0908973,0.0848331
-0.165888,-0.62856,-0.72802,0.037926,0.0976893,0.156481
-0.428156,0.609939,0.0258405,0.133089,0.160781,0.118474
0.237115,0.395943,0.110923,0.0642064,-0.198198,-0.171858
0.529118,-0.22982,0.354336,-0.000282764,-0.107649,0.0954562
0.149714,-0.0528862,-0.0318058,-0.0705578,-0.0459237,0.178936
1.86764,-1.04875,-0.0659274,0.0733292,0.26492,0.0837189
-0.547241,0.239182,-0.0769093,-0.0250542,0.15985,-0.139339
-0.168798,0.390924,0.119049,0.0802499,-0.0929466,-0.12972
0.318007,0.280821,0.285059,0.0992714,-0.0436428,-0.120344
0.807877,0.230176,0.245552,0.0424215,-0.0869539,-0.0863085
0.444474,0.0421453,0.0733895,-0.0081085,-0.229377,-0.00649714
-1.67853,-0.170629,-0.348805,0.0506304,-0.130386,-0.0518876
-0.441383,-1.23575,0.117892,-0.067597,0.0796734,-0.0147371
-2.34781,-0.530671,0.550656,-0.133432,0.456924,0.383507
0.853089,1.05525,-0.107941,-0.0765924,0.027536,0.0368441
-0.0967086,0.506734,0.403845,0.108694,-0.159251,-0.0654624
-0.129364,0.54029,0.641768,0.0119128,-0.245063,-0.0769434
-0.557821,0.476808,0.805115,-0.0259726,-0.139446,0.0571893
-0.141326,0.10064,0.284508,-0.023653,0.247168,0.188107
0.751315,-0.0241794,-0.459255,-0.0896619,0.245148,0.134588
0.229098,0.761189,-0.54964,0.243821,0.0447467,-0.0681558
0.00353076,-0.451215,-0.0308388,0.258558,-0.0559451,-0.296644
0.15507,-0.644887,-0.151886,-0.03285,-0.00376642,-0.0773
0.433125,-0.518636,-0.526689,0.0190856,-0.157106,0.0425396
0.0869817,-0.770523,0.0548854,-0.120826,-0.100907,0.0399106
0.224853,-1.1242,-0.555596,-0.156862,0.11324,-0.0683508
0.0457762,0.490342,-0.356252,0.124277,0.240275,0.0908098
0.141934,0.43681,0.226761,0.14425,-0.272494,-0.0618157
-0.170304,0.101981,0.427562,-0.0630166,-0.191115,0.000879526
-0.0318136,0.545105,0.383537,-0.0230187,-0.18649,0.00821805
-0.566431,-0.0749435,0.483854,0.102496,0.148802,0.14334
0.305829,-0.254257,-0.277796,-0.109551,0.252961,0.0966251
0.119381,0.619544,-0.353609,0.162523,0.0578307,-0.160804
0.190566,-0.521368,0.249182,0.133097,0.0173406,-0.23931
0.401354,-0.342462,0.024437,-0.142454,-0.113779,-0.0266674
0.0853287,-0.188923,-0.273703,-0.0696129,-0.191311,0.00168574
-0.0930077,-0.166609,0.192398,-0.0838518,-0.00453442,0.025126
-0.0867524,-0.336783,0.00654421,-0.215743,-0.00726956,0.0342401
-0.25721,0.187137,-0.392816,0.0455857,0.259633,0.079013
0.148704,0.491075,0.106766,0.204538,-0.100784,-0.141693
0.198222,-0.244383,0.435462,0.0764521,-0.136495,0.0214891
-0.0730455,0.387161,0.45172,-0.137874,-0.142856,0.0507516
-0.155903,0.314048,0.14417,-0.00661588,0.0533118,0.0997279
-1.09056,-0.194138,0.511513,0.0892625,0.150967,-0.0137916
0.0832944,-0.289288,-0.248487,0.0278298,0.0437227,-0.116715
0.995122,-0.753089,0.642612,0.19717,-0.185228,-0.299891
3.09031,-1.35319,2.9013,0.142026,-0.561722,-0.308599
2.64783,0.342081,3.94748,0.135045,0.248033,0.435386
-2.05032,-0.122667,1.26071,-0.0989223,0.684468,-0.00310922
-0.801597,-0.452805,-0.677049,-0.382324,0.143799,-0.254759
-0.202771,0.167454,-0.018527,0.29025,0.191041,0.319829
-0.245685,1.05494,-0.147314,-0.0404619,-0.240866,-0.0120256
1.23143,0.889308,0.456553,-0.0877039,-0.138338,-0.0598152
0.268294,0.74663,0.30429,0.00480944,-0.0298498,0.0445621
0.142759,0.691377,-0.19265,-0.091997,0.0151398,0.0277042
0.580774,0.584581,0.0105501,-0.0390915,-0.0359459,-0.0111054
0.914586,0.0461273,0.110383,0.293248,0.267225,0.114084
0.860313,0.0113875,-0.231498,0.0400599,0.203941,0.0861279
-0.362634,-0.24274,-0.700274,0.0977052,-0.253511,-0.117754
-0.215993,-0.346389,-0.0451625,0.0466469,-0.297529,-0.153338
-0.0412924,-0.715452,0.337185,-0.0259931,-0.121894,-0.081243
-0.455472,-0.594985,0.0207279,-0.0470555,0.137389,0.0844984
-0.618073,-0.328041,-0.110894,-0.131209,0.123325,0.100627
0.00346904,0.161376,0.260081,0.246381,0.357336,0.149627
-0.3156,0.944793,-0.247295,0.0549185,-0.198085,-0.0860463
-0.153996,0.437117,0.273729,-0.0906169,0.0128787,-0.116203
0.961757,0.248347,0.318664,-0.136806,-0.167316,-0.0918587
-0.294917,-0.24333,0.82359,-0.143091,-0.183051,0.0128326
-0.0745147,0.0368617,-0.118705,0.0653854,0.246531,0.197147
-1.32321,-0.0781418,-0.450646,0.130047,0.181941,0.126699
0.0705769,0.188599,-0.636273,0.00938386,-0.00872773,-0.06978
-0.050143,-0.205953,-0.297607,0.224637,-0.1522,-0.236575
-0.13028,-0.572429,0.232286,0.00869,-0.185225,-0.225349
0.0502093,-0.660334,0.132027,-0.129554,0.0190058,-0.00368702
-0.274204,-0.639496,-0.309525,-0.156126,0.0612587,0.084604
-0.142703,-0.349717,-0.0833298,-0.076148,0.0655327,0.0761119
-0.212269,-0.119058,-0.155604,0.0734926,0.166922,0.110321
1.63113,0.851174,-0.408215,-0.0506535,0.17263,0.024976
0.944998,1.01467,-0.0581884,-0.0127935,-0.155603,0.0204635
-0.135257,0.438042,0.200071,0.0216848,-0.375179,0.00802612
-0.862952,0.0223828,0.423346,-0.0439438,-0.0541635,0.00722229
-0.105133,0.187872,0.0928234,0.0130858,0.14766,0.0942136
0.0908808,0.104093,-0.0843297,0.0497321,0.208483,0.0924653
0.483753,0.218745,-0.322935,-0.0798058,0.0729058,0.0429344
1.80325,0.483181,-0.637038,0.208653,-0.00429791,0.0346155
6.12047,0.940668,0.177497,0.0828524,-0.422349,0.121516
-11.5915,-0.316643,-0.782439,0.131966,-0.311062,0.169913
10.9967,1.27305,-0.670777,-0.123608,-0.0452943,0.293426
-5.66786,-0.270788,-0.708201,0.0221557,-0.480073,-0.10318
4.79536,0.491293,-2.0341,-0.223389,0.285103,-0.158411
-0.229751,-0.366332,0.150441,-0.130648,-0.333244,-0.107905
0.0636679,-0.507105,0.408879,0.331554,1.45846,-0.021946
0.66666,0.374302,0.137242,-0.0826457,-0.304806,0.100008
-4.04763,-0.105162,0.633418,-0.0625416,-0.349778,0.0372956
2.06706,0.60479,-0.00752416,0.0829651,0.195732,0.0728672
0.578704,1.32355,0.488687,-0.182581,-0.23764,0.0222572
0.179286,0.792012,0.561158,-0.0883915,-0.102222,0.0864867
-0.171574,0.725034,-0.0188208,-0.00028801,0.12306,0.11626
0.0536633,0.621698,0.23805,0.0507261,0.071215,0.015907
1.01128,1.21548,-0.0400116,0.0410661,-0.152489,0.0400778
-0.43897,0.081669,-0.309477,0.196437,0.0329935,-0.176857
-3.3275,-0.826278,-0.930897,0.0651503,0.1623,-0.0896642
1.83626,-1.10551,-1.38842,0.191311,0.262184,-0.641412
-0.435538,-0.450016,-0.756899,0.0607682,0.0918846,0.100518
-2.35255,-0.700405,-1.8309,0.041411,0.0764397,0.063223
0.31933,-0.0906928,-1.41991,-0.0492509,-0.336071,0.0556185
-3.07652,-0.0557516,-0.0118143,0.118144,-0.0649467,0.157805
0.696755,0.556366,-0.191838,0.258709,0.204248,-0.156358
0.309878,-1.15971,-0.0539464,0.066753,-0.16934,-0.288047
-0.177814,-1.39359,0.375259,0.0845113,-0.0586631,-0.0550036
0.448261,-0.674026,0.414607,-0.15964,-0.0792688,0.174983
-0.099238,-0.141368,0.573645,-0.164934,0.00227088,0.257909
0.0441122,0.324045,0.44936,-0.202336,-0.0183434,0.11676
0.197947,0.655583,0.130457,-0.25492,0.135966,-0.0346627
-0.625493,0.572022,-0.363571,0.00453784,0.176397,0.256898
0.184966,0.803993,0.0845716,-0.117176,0.00820374,0.0858417
0.452005,1.29666,0.329187,0.0197497,-0.154624,0.0845157
0.135585,1.1161,0.173181,0.152394,-0.156287,-0.0641522
-0.108915,0.417955,0.330649,0.162456,-0.139065,-0.392331
3.42802,-1.67058,1.13954,0.194119,-0.118177,-0.437153
5.48272,-1.2804,4.02203,0.353975,-0.0630832,0.20981
7.45591,2.59923,5.43278,0.13048,-0.124182,0.101735
-1.77971,0.881568,2.05762,0.192618,0.190416,-0.25113
-2.05911,0.291485,0.467338,-0.0138201,0.276535,-0.200186
1.50477,-0.127058,0.286801,-0.285294,0.437356,-0.379479
-0.421797,-0.761925,-0.747348,0.268296,0.225177,-0.0279292
4.64778,-1.01878,-1.27588,0.141102,0.132997,-0.205551
2.37987,-3.7696,-2.3617,0.590149,0.171681,-0.318467
1.53874,-4.55713,-1.65349,0.342136,-0.12427,0.0475594
1.34558,-3.00196,-0.596924,0.431553,-0.0794021,0.5001
-0.298613,-0.64185,0.77594,0.37215,-0.192185,0.723471
-0.252246,1.46707,1.56912,0.402213,-0.065288,0.322438
1.51626,2.67264,-0.360627,0.395481,0.197956,0.116929
-0.265473,2.85002,0.124109,-0.01583,-0.132971,0.0271437
0.202997,2.88223,0.418409,-0.117188,0.0053266,-0.279952
0.18823,1.3626,0.0457008,-0.0583115,0.202776,-0.612179
-0.925774,0.23436,0.055258,0.128192,0.189644,-0.50771
0.882403,-0.359187,-0.780336,-0.160965,0.101394,-0.0987824
1.42293,-0.506137,-0.892752,0.0736557,0.00679346,0.0804654
-0.0517101,-0.836552,-0.502941,-0.00224471,-0.0117761,0.280893
-1.55847,-0.197965,-0.0479488,0.180239,-0.0837452,0.370372
-1.96268,0.793725,1.22411,0.169744,-0.124149,0.264221
-2.84926,1.25118,0.992379,0.309059,-0.0776849,0.151949
0.0201226,0.75023,1.03201,-0.115079,-0.0598391,-0.275869
-1.25132,-0.179289,1.6017,-0.0275881,0.141038,-0.257001
0.499245,-0.452404,0.724278,-0.128043,0.373409,-0.148999
0.662117,-0.636319,-0.531483,0.165416,0.47986,0.043873
2.19491,-0.027008,-0.842752,0.0418223,0.449865,0.0756826
2.00971,-0.452692,-1.84075,0.166612,0.397718,0.141241
2.13382,-0.775049,-2.26024,0.0765007,0.0441663,0.299479
0.320746,-0.940615,-1.81934,0.372314,-0.156228,0.489835
-0.559949,-0.398447,-1.25346,0.337586,-0.314822,0.482955
0.194379,1.45299,-0.181374,0.128686,-0.269501,0.306063
1.55361,2.44091,0.917811,0.0357277,-0.382683,-0.182656
-0.612439,0.857169,1.4371,0.0662791,-0.0886663,-0.385246
0.874651,0.0187307,0.918154,-0.136246,0.184923,-0.375736
0.578493,-0.77356,-0.248837,0.161776,0.392277,-0.152637
0.934867,-0.92935,-1.22092,0.189911,0.30648,0.0603021
2.26018,-0.612131,-1.27998,0.126291,0.194638,0.18869
1.19808,-0.71807,-1.23519,-0.037409,0.0438983,0.278982
1.19079,-0.510503,-1.04638,0.109061,-0.0367547,0.329887
1.194,0.634926,-0.256735,0.249806,-0.0308016,0.294897
0.725401,0.813397,-0.413503,-0.0631219,0.0659514,0.0420966
1.73094,0.614783,-1.1585,0.137933,0.1147,-0.19003
2.20093,-0.677291,-1.91658,-0.0856199,0.151257,-0.173745
2.47067,-1.94004,-2.48648,0.0623522,0.0662005,-0.290461
1.38509,-2.3412,-2.0659,0.309117,0.147326,-0.291894
1.87608,-1.4585,-1.64669,0.0297623,0.0422534,0.0389581
1.89639,-1.05398,-0.602153,0.0859154,-0.0286425,0.144668
1.8485,-0.451504,0.600039,0.309305,0.169326,0.0198748
1.02115,-0.202176,0.491686,0.0525098,0.0300178,0.0860771
1.33749,0.0845435,0.268771,0.0370921,-0.0604921,0.0487799
1.18744,-0.0239172,0.487946,-0.0417919,-0.0956942,0.116122
0.488245,-0.0384067,0.45123,-0.114616,-0.00429356,-0.0288472
0.797761,-0.166521,0.0151573,-0.208838,0.248362,-0.101145
0.24445,-0.448156,-0.0117987,-0.0288024,0.107868,-0.100384
0.837872,-0.620579,-0.00739114,0.0171138,0.0134111,0.0229822
1.17118,-0.0804611,-0.088709,0.0498185,-0.0640289,-0.00451636
1.30509,0.356167,-0.185065,0.103667,0.0569682,0.0118123
1.26819,0.283058,-0.470004,0.122175,0.0573464,-0.0196822
1.46955,-0.549102,-0.39868,-0.0219418,0.0433753,0.00459009
0.466086,-0.691077,-0.166456,-0.109911,0.0824205,-0.0933399
0.317076,-0.998824,-0.290027,-0.0406595,0.109411,-0.261129
0.731867,-1.13424,-0.582489,-0.00257061,0.151812,-0.220401
0.473477,-1.082,-0.142525,0.145349,0.127867,-0.074048
0.440338,-0.893591,-0.533855,0.121432,0.0310101,-0.0374403
0.959583,-1.33378,-0.971394,0.0593292,-0.0552946,-0.180101
0.429159,-2.28966,-0.495997,0.0379835,-0.0437427,-0.368412
1.43052,-3.22991,-0.803482,-0.136991,0.0287933,-0.507094
0.903343,-3.82051,-0.352876,-0.016329,0.0793355,-0.385561
0.363065,-2.70553,-0.107838,0.057191,0.0734792,-0.300199
-0.0746235,-2.30462,-0.104597,0.03202,0.100892,-0.123428
-0.498959,-1.76973,0.159596,0.184994,-0.0266192,0.0265315
-0.806349,-1.21258,0.378137,-0.0246439,-0.0613937,0.0381134
-0.654682,-0.339558,0.00442951,-0.121074,0.0342795,0.113966
-0.0231106,0.252334,-0.272703,-0.111665,0.0510922,0.103665
-0.356761,0.0122348,-0.275602,0.0692822,-0.127667,0.0819116
-1.01962,0.156754,0.226356,0.157193,-0.0211018,0.0359788
-1.52765,0.483577,0.589881,0.250131,0.00518882,-0.0632675
-1.08709,0.299688,0.691021,0.211514,-0.0694841,0.0704685
-0.939077,0.677369,1.71056,0.43103,-0.0465968,0.133126
-1.99305,1.63378,3.9089,0.574897,0.00123239,0.102469
-1.79602,2.03795,4.21366,0.217362,0.522909,-0.0525262
-1.77745,2.17945,2.67424,-0.111521,0.389501,-0.0259987
-1.80618,1.59554,1.66503,-0.414657,0.15633,-0.0941125
-2.01577,0.725468,1.26174,-0.278557,0.14576,-0.185314
-1.99016,1.58812,1.01264,0.158135,0.183018,-0.276322
-2.83157,1.53439,1.07288,-0.178974,-0.281764,-0.166293
-0.945959,1.04646,1.41752,-0.07906,-0.309702,-0.138861
-1.87307,0.297232,1.99908,0.248703,-0.0370387,-0.0684097
-2.37909,0.141398,1.85182,0.519291,0.314839,0.117406
-0.797782,0.0313778,0.0955099,-0.0814937,0.250353,-0.129626
-0.979425,-0.197951,0.209574,-0.469702,0.0384634,-0.171895
0.420407,0.517574,0.104398,-0.0765215,0.192873,-0.302297
1.52452,-0.143416,-0.507951,0.741162,0.260996,-0.336741
1.05186,-0.911343,-1.258,0.328513,0.130744,-0.00687456
0.789733,-1.04634,-1.60428,-0.303644,-0.0601345,0.13849
0.408292,-0.713715,-0.919784,0.144841,-0.218519,0.314269
-1.02664,-0.157116,0.327729,0.265304,-0.241582,0.33212
-0.559033,1.20152,1.07179,-0.034667,-0.149003,0.0912448
-1.52044,0.369841,0.914385,0.045349,-0.245528,0.0337777
0.0556803,0.578678,1.29182,-0.181298,0.037799,-0.163783
-0.0659526,0.387988,0.925055,-0.0293251,0.232085,-0.226337
-0.608783,-0.479793,-0.147279,0.238221,0.351103,-0.171975
2.27348,0.124336,-1.61593,0.0288359,0.278326,0.0945558
1.06279,0.627462,-1.52864,-0.0231267,-0.17063,0.385781
-1.36831,0.844889,-0.41514,-0.188187,-0.121937,0.307116
-1.73504,0.653354,0.460855,0.156183,0.0986554,0.200814
-3.46622,-0.672564,-0.444142,0.24362,0.0902577,-0.00736642
-0.836053,0.849372,-0.676015,0.173545,-0.010238,0.229111
0.516872,0.17327,-0.660156,-0.0100572,-0.129084,-0.195666
-1.74372,-0.0818079,0.322418,-0.152162,-0.249758,0.0447454
0.707095,0.655956,1.17195,-0.199769,0.358743,0.0977353
2.04371,0.518193,0.549604,0.0126183,0.122571,0.289656
2.92537,-0.163116,1.04881,0.205514,-0.356642,0.134755
2.26861,0.405014,1.28627,-0.269408,0.213295,0.274795
1.88003,0.362948,0.275405,-0.112549,-0.120024,0.238459
-0.895752,-0.321295,-0.0414698,0.288494,-0.116082,0.131326
-2.0965,-0.353208,-1.09498,0.148188,0.364547,0.0828252
0.971388,1.12735,0.246747,0.0752867,-0.11617,0.0386244
0.703834,0.861714,-0.282483,-0.17065,-0.0302071,0.0609484
0.962327,0.334361,-1.19696,-0.306578,0.225716,-0.0628008
1.27102,0.0734378,-1.22403,0.00914872,-0.0474198,-0.134768
-0.990245,-0.407814,-0.689812,0.234748,0.040533,0.0784228
-0.577788,-0.188213,-0.157603,0.17738,-0.179297,0.0964291
-0.73291,-0.0767117,0.618923,-0.00325418,-0.0951548,0.0997419
-0.24143,0.209232,0.64028,-0.0980613,-0.0214153,0.0593183
-0.0576584,-0.235241,0.0519284,-0.0911882,0.0438109,-0.0524811
-0.816571,-0.325397,-0.519811,-0.124852,0.169785,0.115931
0.195635,-0.0349066,-0.72839,0.141967,0.312199,0.155585
0.158607,0.649056,-0.567355,0.249849,-0.0821385,-0.101326
0.350957,-0.307578,-0.209979,0.0539815,-0.215067,-0.125354
-0.179952,0.0142201,-0.28671,-0.160534,0.0438392,0.0822685
0.670027,0.08625,-0.876981,-0.191064,0.126167,-0.119419
0.311844,0.684127,-0.603335,0.147457,0.169222,0.0901837
0.132499,0.392011,0.25692,0.211729,0.1861,0.0672801
-0.0138202,0.0839808,0.583178,-0.0265037,-0.225693,-0.029139
-0.621538,0.365225,0.49467,-0.255269,-0.189645,-0.0282675
-0.219646,0.030993,0.735538,-0.337043,-0.318657,-0.247791
0.350267,-0.231591,1.09303,0.534299,-0.0236996,0.252268
-1.29003,-1.19386,1.09954,0.733154,-0.543163,0.0987566
0.679425,-0.818663,1.48805,-0.503853,0.332028,-0.380677
2.28066,0.0122846,-0.939922,-0.417938,0.903136,0.435735
4.4575,1.18473,-0.864583,0.27885,-0.0359839,0.347583
1.89835,1.03871,-1.17559,0.0412853,-0.278933,0.109576
1.54721,-0.00573941,-1.17975,0.319115,-0.332785,0.285943
-2.13039,-0.314936,0.00621854,0.355435,0.00853521,0.205532
-2.10959,0.202453,0.23052,0.0212036,0.0717962,-0.0879676
0.198561,0.0418238,1.00094,0.0293365,-0.123488,-0.00680649
1.05521,0.256157,1.15661,-0.217504,0.0992547,0.0536135
1.87833,0.769689,0.133862,-0.335725,0.361109,0.110984
2.04258,0.742913,0.163496,-0.113515,0.205321,0.375615
5.63963,1.81216,-0.129135,-0.11705,0.427985,0.600198
4.69337,2.1087,-0.169856,-0.0467819,-0.0346729,0.595374
4.46198,2.44619,0.304686,-0.0516338,0.0298619,0.630702
6.43014,2.92781,0.467059,-0.141591,0.417646,0.571549
7.23924,1.62978,0.114166,0.0303036,0.505014,0.596243
4.7401,0.667832,-0.0663164,0.054378,0.352524,0.498051
3.0846,0.0858464,-0.675622,0.322138,0.348393,0.621769
0.628432,-0.548766,-1.18287,-0.0178759,0.0460388,0.480642
0.858767,-0.88701,-1.47792,-0.0958115,0.0380235,0.0878136
1.88328,-0.0279841,-0.92726,0.392662,0.0238837,-0.0996056
2.5083,-0.48539,-0.779853,0.224258,-0.0672977,-0.434851
1.40343,-0.7758,-0.56521,-0.200243,-0.0108782,-0.0283605
1.10469,0.552948,-0.752307,-0.549316,-0.0689778,0.431279
0.340388,0.778698,0.953952,0.615853,0.365739,0.458726
-1.80724,0.436942,-0.545565,0.165276,-0.0650886,0.375633
-0.871004,0.966946,-0.651271,0.010276,-0.0105299,0.117465
0.0960126,1.56774,0.642346,-0.364262,0.0873998,-0.261429
1.5115,1.03173,0.772922,0.0158722,0.185535,-0.165419
1.20356,1.07112,-0.657,-0.134179,0.18057,-0.221794
2.82803,-0.240897,-1.32408,0.161232,0.027757,0.0291754
-1.87351,-0.750286,-0.830868,0.209034,-0.201133,0.345427
0.954199,0.254873,-0.232741,0.105265,-0.211009,0.261515
1.16111,0.386767,0.145408,0.081735,-0.0533558,0.030984
0.856837,0.386509,-0.133525,-0.0621395,-0.0611529,-0.0441533
0.77175,0.135631,-0.0852077,0.128742,-0.0264594,0.0236598
0.748778,0.23084,-0.0153915,0.0455366,-0.0310953,0.0127195
-0.155041,0.0117402,0.137571,-0.00137174,-0.0149313,0.0250186
-0.236523,-0.0698279,-0.117565,0.0283324,-0.0294343,-0.0276718
0.00603813,-0.122767,-0.353509,0.0350304,-0.0824603,-0.0474443
0.0716651,-0.170381,-0.065544,0.00321984,-0.108601,-0.0321323
