rotation_x,rotation_y,rotation_z,acceleration_x,acceleration_y,acceleration_z
1.30793,0.073766,-0.307043,0.0226645,0.0600325,0.0673532
0.338135,-0.0830239,-0.414228,-0.0819142,0.0159785,0.125085
0.367995,-0.0723678,-0.582015,-0.0550587,-0.0185985,0.123127
0.0166979,-0.130708,-0.383574,-0.0187663,-0.138063,0.0719351
-0.00183363,0.0405318,0.234929,-0.0713627,-0.157651,-0.0119038
-0.404601,0.189661,0.992571,0.132297,-0.0924911,-0.0101112
-1.07324,-0.0121084,1.04623,0.0437217,0.0488813,-0.0277546
-0.73693,-0.32513,0.351169,0.0208513,0.133571,-0.0197406
-1.34508,-0.635261,-0.61371,0.0348645,0.0266146,0.0429009
-0.876156,-0.455713,-0.593579,-0.193944,-0.0956357,0.0691635
-0.282194,0.0428302,0.365585,-0.176612,-0.143603,-9.16719e-05
0.260634,0.477654,0.946288,-0.0661491,-0.0844537,-0.0752016
-0.205436,0.558843,1.14543,0.144596,0.0825382,-0.130993
0.180618,-0.017092,0.269175,0.113726,0.270509,-0.152771
0.444944,-0.451272,-0.975861,0.139526,0.15276,0.0532002
-0.0936358,-0.514605,-1.48191,-0.0609958,-0.00402835,0.089528
0.606939,-0.239476,-1.28688,-0.0700873,-0.168992,0.159439
-0.0977503,-0.225323,-0.495049,-0.0893126,-0.314556,0.167074
-0.134816,0.376847,0.820909,0.0385492,-0.267314,0.0734164
0.0635136,0.443485,1.91094,0.311319,-0.106325,-0.0718285
-0.853199,0.0472432,1.40413,0.161954,0.0819644,-0.0444131
-0.745852,-0.243085,0.0586805,0.00725579,0.163199,0.029053
-0.969096,-0.274735,-0.409581,-0.165022,0.0994533,0.138056
-0.232021,0.239873,-0.212221,-0.165411,0.0696287,0.0799875
0.487992,0.315927,0.0046481,-0.175005,-0.0664312,-0.161171
-0.394795,-0.0336741,0.17916,0.070799,0.067572,-0.159132
0.88236,0.187811,0.359368,0.0912119,0.0878737,-0.0237738
1.02899,0.0686329,-0.208468,0.00254059,0.196268,0.0268875
0.653123,-0.158758,-0.746802,0.0945802,0.102483,0.113625
0.949309,0.0859648,-1.17411,-0.123046,0.0411089,0.158009
1.2603,0.0697074,-0.923233,-0.0992468,-0.112828,0.135727
-0.00454987,0.0970772,-0.235195,-0.0889624,-0.206225,0.119618
0.0295925,0.588592,0.693011,0.166276,-0.125455,0.0354828
0.395966,0.370002,1.14816,0.160305,-0.00147077,-0.119842
-0.417472,-0.216798,0.400727,0.0234321,0.0297939,-0.0307306
-1.37398,-0.670386,-0.534767,-0.0375295,0.00973013,0.0615039
-0.948024,-0.431188,-0.548375,-0.236114,-0.0291999,0.133445
-0.180591,0.116264,0.155741,-0.227841,-0.135371,0.0329598
-1.06971,0.719254,0.740388,0.0841254,-0.11069,-0.20941
-0.0214951,0.0265457,0.876082,0.273491,0.272623,-0.125252
2.10288,0.0241212,0.0981896,0.0484719,0.13416,-0.00531423
0.244531,-0.438432,-0.632294,0.0583329,0.0913558,0.0717549
0.00393467,-0.30292,-1.21548,-0.184358,0.0450993,0.169976
0.585432,-0.182081,-0.88994,-0.116495,-0.118963,0.180881
-0.260734,0.16428,-0.0443615,-0.0988651,-0.210696,0.153984
0.534361,0.524268,1.03179,0.318938,-0.0768951,-0.0689471
-0.170433,-0.120289,1.06941,0.198214,-0.015642,-0.154653
-0.617184,-0.460277,-0.125943,0.021325,-0.00186598,0.0579948
-1.74547,-0.692452,-0.580709,-0.172453,-0.04468,0.131963
-0.809711,-0.1451,0.0546554,-0.232453,-0.0412174,0.130717
0.30295,0.430867,0.626668,-0.205371,-0.00716388,-0.0424181
0.573173,0.611579,0.827638,0.234681,0.118175,-0.0786359
-0.158677,0.215305,-0.0882325,0.0904701,0.162684,-0.148589
1.23856,-0.231583,-0.675845,0.135715,0.150646,0.0768222
0.30202,-0.35107,-1.07179,-0.108898,-0.0343546,0.110121
0.888153,0.0838445,-1.01312,-0.156433,-0.0907607,0.214327
0.500264,0.0786047,-0.215538,-0.131403,-0.195865,0.176851
0.0869524,0.540707,0.485996,0.102614,-0.147056,0.096051
-0.689032,0.305875,1.08774,0.350648,-0.19374,-0.00303191
-0.411956,0.281167,1.17014,0.0504794,0.116965,-0.059275
-0.0236208,-0.0659036,0.260486,0.089141,0.128025,-0.0165343
-0.914049,-0.324805,-0.394982,-0.261562,0.0936604,0.0533983
-0.663294,-0.235604,-0.288372,-0.130073,0.0426837,0.0727086
-0.252128,0.164267,-0.0399885,-0.116122,-0.00342855,-0.0604144
0.666554,0.340156,0.50668,0.213806,0.0542034,-0.108708
1.75611,0.251066,0.249288,0.155621,0.154981,-0.144851
0.676879,-0.35679,-0.621053,0.134717,0.126736,0.049178
0.303418,-0.525588,-1.29217,-0.0429899,0.0554062,0.0950863
0.802852,-0.25771,-1.30284,-0.141057,-0.0686443,0.213107
0.356909,-0.200068,-0.647315,-0.116402,-0.212634,0.217408
-0.222116,0.282316,0.28466,0.132963,-0.208828,0.174002
0.850088,0.803941,1.21497,0.149286,-0.0749264,0.0574129
0.128295,0.301036,1.00278,0.0753016,-0.0091327,-0.15872
-1.83721,-0.380558,-0.317582,0.0419537,-0.0250665,-0.0035758
-1.7621,-0.358226,-0.470944,-0.258294,-0.0234167,0.136669
-1.76961,-0.203042,0.439998,-0.157798,-0.184319,-0.139595
-0.87653,0.211345,0.826602,-0.0258968,0.239831,-0.259355
1.77963,0.102863,1.11805,0.364208,0.170147,-0.0183374
0.66011,-0.344012,-0.569855,0.0150824,0.0623029,-0.00824881
-0.419139,-0.74964,-1.35474,0.166602,-0.00576919,0.138129
-0.377043,-0.401533,-1.58802,-0.121568,-0.171967,0.139997
0.95461,0.227487,-0.970751,-0.0440744,-0.263685,0.227921
1.6264,0.331026,0.133171,0.0548874,-0.459662,0.0597381
-1.21499,0.560537,1.62011,0.23471,-0.33809,0.118636
-1.58165,-0.0205415,2.20114,0.303387,-0.0197933,0.00216061
-2.2006,-0.456218,1.04032,0.223734,-0.0349807,0.169328
-3.69509,-0.768954,0.349156,-0.118068,0.0474634,0.201446
-1.60156,-0.00840545,0.586257,-0.116255,-0.00193295,0.157779
-0.28774,0.470608,0.958291,-0.323756,-0.00306842,-0.112739
-1.14957,0.499951,1.05663,0.14738,0.0466599,-0.133533
-2.13315,-0.155836,0.0407372,0.297309,0.159516,-0.242547
-0.24265,-0.391196,-0.789901,0.065907,0.115889,-0.0829896
-0.072928,-0.623272,-1.17642,-0.0703288,-0.107731,0.0329279
-0.09658,-0.437076,-0.793557,-0.098734,-0.179632,0.0810992
-0.122473,-0.219016,-0.0959525,-0.0837079,-0.246897,0.105536
-0.674053,0.0536848,0.713415,0.0246161,-0.247047,0.0584959
-0.867198,0.363392,1.47113,0.101815,-0.130083,0.0218074
-1.04525,0.304904,1.75184,0.183087,0.099056,-0.0362052
-0.552981,-0.0538401,0.417232,-0.0202214,0.218016,-0.127065
-1.30592,-0.676736,-0.839132,0.0386805,-0.0308678,-0.0961435
-5.44853,-1.50832,-0.459092,-0.197695,-0.289421,0.122838
0.447391,-0.174862,0.419048,-0.127987,0.0168695,-0.274556
-2.60858,-0.36746,0.645882,-0.126115,-0.130354,-0.0146945
-1.01484,-0.184407,0.337181,0.052362,0.143205,0.0145117
-0.305968,0.0417411,0.570908,0.126317,0.112383,-0.203661
0.340645,0.127675,-0.157432,1.80602e-05,0.158755,0.0318515
0.73919,-0.265272,-0.694316,0.0862811,-0.019294,-0.0227208
-0.34099,-0.350647,-0.903484,-0.110878,-0.244225,-0.0518963
-2.02039,-0.463411,-0.475901,-0.0572082,-0.166338,0.0211228
-0.182438,-0.308425,0.062997,-0.0796928,-0.132454,-0.0218973
-0.752199,-0.276257,0.772815,0.00891536,-0.154038,-0.0138282
-0.36311,-0.293791,1.62204,0.0916906,0.0155611,-0.0047695
0.609637,-0.0347025,1.333,0.0175982,0.108282,0.000530362
-0.740696,-0.0611428,0.375496,0.0135711,-0.0493846,-0.0591087
-1.75587,-0.181687,0.157467,-0.165614,0.0656649,-0.00389904
-0.805028,0.0911356,0.308226,-0.167188,0.0786397,-0.0820813
-0.0729893,0.250247,0.400954,-0.227393,0.0952675,-0.201698
-0.250021,0.118416,0.280232,-0.0248694,0.114725,-0.214721
0.0488357,0.128822,0.344634,0.140409,0.214546,-0.199412
1.11193,-0.091052,-0.369043,-0.000761807,0.194789,-0.0587524
0.874094,-0.449459,-0.96136,0.0757003,0.116874,0.0843484
-0.041901,-0.476353,-1.36573,-0.111131,-0.0696774,0.173435
0.0513307,-0.136893,-1.21403,-0.119357,-0.190528,0.172904
0.614565,0.20202,-0.300023,-0.12946,-0.308405,0.0711355
0.0942032,0.824674,1.42053,0.0963473,-0.273485,0.0220126
0.733631,0.987883,2.40733,0.303081,0.105312,-0.101176
0.129899,0.246845,0.647385,0.124385,0.114778,-0.123062
-2.08702,-0.456972,-0.516287,-0.179613,0.165049,-0.0256206
-0.958265,-0.258739,-0.516533,-0.264442,0.177889,0.0209039
0.352712,0.189411,-0.179842,-0.23729,0.0464509,-0.0943183
0.713579,0.426389,0.344384,0.13156,0.0414426,-0.214294
-0.197389,0.0566585,0.21665,0.152473,0.0994265,-0.178773
0.92726,-0.210139,-0.380661,0.0604533,0.217495,-0.0354257
0.891058,-0.637937,-0.703996,0.0577979,0.119048,0.0385841
0.368656,-0.586304,-1.32028,-0.133301,-0.00103039,0.201655
0.438688,-0.342617,-1.21586,-0.0701951,-0.141414,0.259011
-0.140507,0.274959,-0.280805,-0.0153342,-0.266152,0.196749
0.206281,0.89806,1.34678,0.332896,-0.171166,-0.00537753
0.458974,0.796717,1.49323,0.212812,-0.0344576,-0.110256
-1.23373,-0.0405734,0.470545,0.0901556,0.0486705,-0.0757147
-1.84765,-0.431662,-0.244839,-0.282313,0.105729,0.052377
-1.43879,-0.224465,0.0358313,-0.213398,0.0613624,0.0445653
-1.49523,0.231065,0.425551,-0.221287,0.00186485,-0.0879362
1.3867,0.576906,0.902212,0.281041,0.249791,-0.250315
0.795539,0.0261541,0.0940902,0.123214,0.193459,-0.226675
1.35718,-0.532868,-0.823022,0.0581378,0.234141,-0.0321279
0.45919,-0.987735,-1.04581,-0.0184659,0.0678868,0.0784994
-0.0479471,-0.717969,-1.38482,-0.0881771,-0.0236227,0.26186
-0.235153,-0.391067,-1.30054,-0.0544406,-0.23892,0.287188
0.188152,0.469441,0.0182483,-0.00490785,-0.275566,0.118996
0.623957,0.86679,1.73808,0.379342,-0.252251,-0.039895
-0.186645,0.48841,1.83741,0.187993,0.014756,-0.179128
-0.968435,-0.112077,0.442575,0.0656764,0.0998036,0.023551
-2.37588,-0.323776,-0.205965,-0.220832,0.140595,0.119743
-1.58006,0.0183005,0.181752,-0.213853,0.121505,0.156477
-0.0821995,0.760031,0.819004,-0.185676,0.141697,-0.0512153
1.56659,0.802398,1.05071,0.403092,0.244467,-0.33713
0.830771,-0.113229,-0.262997,0.201085,0.306242,-0.259732
3.14414,-0.519157,-1.28889,0.194924,0.302373,0.00227362
1.24254,-1.0914,-1.69854,-0.195811,-0.0582334,0.0635097
0.0258312,-0.992741,-1.07107,-0.134416,-0.0525445,0.267197
-0.84401,-0.680424,-0.233223,-0.00240427,-0.184908,0.329163
-2.49311,0.111517,0.415434,0.173942,-0.191937,0.376907
1.28385,0.959027,1.29041,0.111401,-0.0701859,-0.128287
1.69868,0.716086,1.04373,0.0820756,-0.0367844,-0.102098
-0.301802,0.269649,0.149948,-0.112615,-0.00140622,0.0476309
-1.9232,0.325118,0.185055,-0.183558,0.1668,0.0357076
-0.19246,0.418539,0.33091,-0.189169,0.181061,-0.0813797
1.06434,0.43471,0.0988731,0.196811,0.165945,-0.28165
0.227159,0.156477,-0.0623785,0.0588819,0.205742,-0.256779
2.12081,-0.371726,-0.441917,0.213991,0.255304,-0.0383737
0.789369,-0.977354,-0.977842,0.0120103,0.034245,0.0782535
0.0110461,-0.746763,-1.33594,-0.241378,0.0232425,0.263689
0.221,-0.518233,-0.649599,-0.0483191,-0.133682,0.30065
-0.0230307,0.0715502,-0.223589,0.121091,-0.187712,0.283812
0.0900433,0.691786,0.796399,0.267633,-0.181046,0.0111567
0.525737,0.824337,1.51751,-0.0113094,-0.00511295,-0.055732
-0.230322,0.330118,0.754585,0.0517816,0.0512422,-0.0758749
-0.675634,0.0113105,-0.0628261,-0.151079,0.184377,-0.0687563
-0.412425,-0.105857,-0.507284,-0.13127,0.0863043,-0.0854985
0.735386,0.225298,-0.067392,-0.293372,0.0772702,-0.129831
1.05619,0.502643,0.871771,0.181809,0.203013,-0.131777
0.546584,-0.133211,-0.385044,0.204944,0.37082,-0.136145
3.97072,-0.272877,-1.04208,0.167626,0.258702,0.0584578
2.01881,-0.973864,-1.48856,-0.0270331,0.0205703,0.18983
-0.665622,-0.895074,-2.17541,0.0732903,-0.122864,0.303677
-0.527524,-0.57174,-1.55529,0.0276024,-0.415008,0.258411
-0.00928948,0.423744,0.29016,0.151647,-0.487833,0.0475606
-0.0385567,0.544747,1.73411,0.217516,-0.140649,-0.0673378
-0.877416,-0.298615,1.16759,0.280956,-0.116688,0.109741
-3.03748,-0.751444,0.748472,-0.116787,-0.175772,0.164093
-2.30252,-0.764848,1.09516,-0.158879,0.137468,0.139385
-0.0292,0.150899,1.70463,-0.278676,0.0118041,0.0348465
0.299791,0.843637,1.61344,0.18612,0.200888,-0.12635
-1.78182,0.631555,0.285932,0.211178,0.230895,-0.212698
-0.517105,-0.149258,-1.14443,0.141971,0.244435,-0.126005
-0.0819123,-0.711593,-1.23959,0.0163568,0.0387768,-0.0995091
0.250985,-0.492531,-1.34847,-0.171151,-0.135544,0.0321208
-0.0573932,-0.582947,-0.700869,-0.107191,-0.307399,0.0915383
-0.91541,-0.145194,0.752647,0.0149323,-0.289749,0.140022
-0.7221,0.194951,2.08969,0.345309,-0.0943791,-0.00308573
-0.501884,0.145947,1.61362,0.117921,0.125375,-0.122524
-0.545895,-0.186835,0.165831,0.0605618,0.116587,0.00791597
-1.80171,-0.265591,-0.414721,-0.286877,0.0940899,0.0891104
-0.618873,0.249678,0.070354,-0.222013,0.0959466,0.00781655
0.0838799,0.666303,0.560795,-0.0177857,0.0464136,-0.280805
0.285186,0.108427,0.391252,0.259651,0.123257,-0.344569
1.08706,-0.395499,-0.236248,0.0875247,0.195805,-0.196288
0.161295,-0.895033,-0.591023,0.122411,0.110184,0.0229927
-0.175276,-0.599734,-1.31892,-0.166222,0.0431818,0.173621
0.636783,-0.269304,-1.2426,-0.145107,-0.0974072,0.264877
0.0656222,0.121569,-0.433566,-0.0653177,-0.23735,0.197487
-0.174146,0.724921,1.03215,0.36271,-0.210149,0.0122707
0.357048,0.529627,1.44202,0.122039,-0.0515271,-0.214546
-0.714474,-0.293235,0.475608,0.0886074,-0.0601328,-0.0405485
-2.30372,-0.63572,-0.148076,-0.195198,0.0297729,0.0768075
-1.05174,-0.210936,0.145139,-0.256495,0.0587543,0.136878
0.390126,0.672417,0.74628,-0.253591,0.0388802,-0.0137931
0.306401,0.827806,1.08567,0.30964,0.146233,-0.189392
0.707197,0.00278962,0.168072,0.250602,0.283365,-0.392069
0.420299,-0.723738,-0.971563,0.117453,0.147752,-0.0679023
0.216347,-0.793704,-1.52309,-0.175319,0.0705178,0.0555896
1.28529,-0.413519,-1.09484,-0.160703,-0.0366391,0.213996
0.230193,-0.255381,-0.416343,-0.121321,-0.173064,0.285254
-0.544459,0.277241,0.293879,0.114636,-0.14698,0.21134
0.136744,0.719355,1.08492,0.165444,-0.0809912,-0.107737
0.317263,0.506379,0.905163,0.02252,-0.000142246,-0.20508
-0.51757,-0.262397,0.0495256,-0.0277435,0.0268361,-0.0283605
-1.13418,-0.131945,-0.45868,-0.226582,0.0522589,0.0815911
-0.0714143,0.284435,-0.0637444,-0.223133,0.0241581,-0.011497
-0.124841,0.644047,0.771523,0.00915051,0.0161216,-0.163651
0.493991,0.417967,0.662066,0.281713,0.161167,-0.326955
1.19658,-0.140089,-0.28986,0.00819188,0.218174,-0.215713
1.02774,-0.833912,-0.623011,0.0864971,0.1021,-0.0884596
0.108868,-0.854416,-1.06276,-0.160709,0.046608,0.072387
0.620296,-0.735595,-0.965002,-0.0726048,-0.0481999,0.239372
-0.507387,-0.342041,-0.710485,-0.107835,-0.207695,0.273907
0.482576,0.436106,0.510943,0.220576,-0.175058,0.0589643
-0.25037,0.474866,0.899836,0.198293,-0.15516,0.0296283
-1.01439,0.00402476,0.275977,0.125425,-0.0923232,0.0505912
-1.80188,-0.321073,0.123913,-0.168719,-0.1177,0.0583307
-1.24103,0.061555,0.744471,-0.25368,-0.0592428,0.0547734
-0.412447,0.581306,1.39471,-0.224499,0.0298287,-0.046771
-0.196601,0.860035,1.40866,0.206642,0.233136,-0.13649
-1.06971,0.125473,0.0728725,0.243163,0.336012,-0.318523
0.721943,-0.284298,-1.11205,0.104219,0.241968,-0.12657
0.951434,-0.766625,-1.29529,-0.053295,0.0189197,-0.078071
0.863764,-0.544083,-1.30935,-0.130824,-0.041332,0.120862
0.213369,-0.766148,-1.03383,-0.0627536,-0.253236,0.199735
-1.07254,-0.0820903,0.0537732,0.112722,-0.285301,0.23037
-0.16118,0.629006,1.4564,0.101921,-0.187228,0.0334768
0.846022,0.50796,1.52896,0.251357,0.0697707,-0.185903
-0.525802,-0.255993,0.00873957,-0.0759135,-0.104499,0.0431495
-2.74187,-0.336309,-0.0548321,-0.232923,0.00997114,0.0882405
-2.31194,-0.246288,0.498156,-0.241448,0.0440219,0.052368
-1.29471,0.456477,0.876241,0.0283233,-0.0132232,-0.270996
0.799069,-0.0654836,0.489328,0.162264,0.230244,-0.314535
0.607375,-0.559064,-0.262931,0.116317,0.0759605,-0.0182687
-0.336612,-1.04888,-1.04834,0.0744547,0.0245205,0.0012871
-0.445484,-0.629278,-1.53609,-0.102362,-0.120531,0.205654
0.00110689,-0.462693,-0.722802,-0.0804924,-0.268773,0.201804
-0.799271,-0.0323493,0.389811,-0.0816954,-0.357423,0.163392
-0.487453,0.221471,1.77753,0.148885,-0.26634,-0.0982804
-2.04514,0.0435856,2.56845,0.35578,-0.126533,-0.0476145
-2.31861,-0.522092,0.955555,0.162057,0.147669,0.0857954
-2.26337,-0.703896,-0.0704601,-0.181754,0.101996,0.251958
-1.80795,-0.231675,0.179423,-0.209743,0.0177075,0.291341
-0.449634,0.584623,1.0206,-0.314336,0.0436201,0.021435
0.873972,0.98384,1.18831,0.252196,0.181079,-0.28346
-1.62923,0.20675,0.212073,0.118052,0.21642,-0.321534
0.589758,-0.373724,-0.664824,0.0907044,0.283918,-0.14095
0.424943,-0.847073,-1.50781,0.0165654,0.0389532,-0.033891
-0.0509005,-0.846619,-1.91793,-0.0852494,-0.195306,0.132768
-1.37026,-0.845944,-0.771154,-0.0988286,-0.381307,0.192891
-0.63238,0.0185332,0.76427,-0.0072484,-0.328967,0.183753
-0.54142,0.669482,2.44889,0.401872,-0.227546,0.0743282
-0.588964,0.15766,1.87389,0.143514,0.138888,-0.0776563
-0.767831,-0.0418176,-0.134474,0.0547993,-0.0123236,0.0528426
-3.0916,-0.58831,-0.090654,-0.25479,-0.0508303,0.0903367
-1.86205,-0.118956,0.792224,-0.267879,0.0504042,0.024168
-0.0701611,0.662048,1.02161,-0.133207,0.100943,-0.21781
0.489008,0.334894,0.836615,0.438029,0.17813,-0.317763
0.352545,-0.249076,-0.432089,-0.0637994,0.232484,-0.171569
0.000493016,-0.959691,-1.13347,0.16072,0.109225,-0.0200346
-0.807296,-0.983377,-1.9585,-0.0749692,-0.093932,0.14462
-0.118942,-0.784881,-1.72496,-0.0357197,-0.324296,0.205638
-0.523086,-0.134601,-0.15945,-0.0647702,-0.46825,0.19319
-0.239503,0.983312,2.2946,0.144393,-0.35929,0.0999081
0.387192,0.978321,3.37778,0.499574,0.0723483,-0.145495
-0.822953,0.121892,0.881923,0.0747783,0.219193,-0.0588835
-2.32195,-0.405637,-0.702067,-0.19778,0.202602,0.0925257
-1.46802,-0.280752,-0.370241,-0.281026,0.175158,0.0712665
-0.00617487,0.542919,0.49781,-0.15175,0.0979633,-0.0443903
0.786434,0.547632,0.604222,0.452262,0.155445,-0.28504
0.626718,-0.266284,-0.48677,0.140163,0.136117,-0.223167
1.40766,-0.850018,-1.17332,0.177097,0.0384276,0.0400407
-0.432579,-0.859186,-1.61066,-0.204739,-0.131095,0.0982149
0.26213,-0.484115,-0.967164,-0.204048,-0.18157,0.303376
-0.187545,-0.061444,0.0102398,-0.0612555,-0.285419,0.318353
-0.509678,0.835792,1.36123,0.418294,-0.191311,0.152426
0.68983,0.68262,1.66086,0.227112,-0.0106157,-0.126901
-0.643701,0.20803,0.691139,0.0859592,-0.0208169,-0.040524
-1.50897,-0.212692,0.0243303,-0.275599,0.132992,0.0203934
-1.03487,-0.0736032,0.0702566,-0.25382,0.119832,0.0757021
-0.144207,0.567513,0.458746,-0.108745,0.132199,-0.0379958
0.4114,0.29781,0.402136,0.450302,0.16779,-0.251212
1.01498,0.0825516,-0.421694,0.205448,0.209147,-0.202721
2.32015,-0.635797,-0.658885,0.113899,0.103016,-0.0587791
-0.3525,-1.12223,-1.38358,-0.193048,-0.0540533,0.184715
-0.00681821,-0.669074,-1.18631,-0.190733,-0.0673676,0.309504
0.0573103,-0.0466519,-0.242896,-0.0259428,-0.209899,0.362399
-0.0586155,0.85686,0.932683,0.435915,-0.145234,0.20408
0.0247864,0.740665,1.3449,0.0929859,-0.121441,-0.0291946
0.0190771,0.573779,0.458447,0.0489273,0.00166222,-0.059587
-0.625057,0.027246,-0.04084,-0.228522,0.0475444,-0.0219483
-0.799212,0.0241778,-0.035317,-0.216382,0.0692396,-0.0429737
-0.19964,0.269593,0.100789,-0.132948,0.0533045,-0.101034
-0.109651,0.135324,0.401739,0.356152,0.136093,-0.196065
0.955962,-0.285759,-0.222842,0.11345,0.213822,-0.139538
1.33146,-0.567959,-0.841465,-0.003016,0.0112815,0.055151
0.102752,-0.549973,-1.02457,-0.208873,-0.0149676,0.123361
0.962499,-0.28672,-0.641417,-0.135238,-0.0452311,0.216131
-0.574867,0.0581211,-0.190197,-0.0534549,-0.181271,0.312582
-1.41758,0.597123,0.720535,0.293326,-0.182857,0.112
0.715855,0.602899,1.14408,0.281442,-0.0349163,-0.145638
0.663116,0.339109,0.52487,0.0217169,-0.226459,0.0037843
-2.7536,-0.291685,0.339026,-0.270101,0.0220949,0.0444742
-1.18593,-0.16721,0.253874,-0.19531,0.136904,0.0674672
0.00728305,0.603653,0.238792,-0.189116,0.130894,-0.0877575
0.525729,0.468039,0.413973,0.277315,0.183075,-0.273022
1.03179,-0.0355739,-0.570211,0.401862,0.295546,-0.170437
0.344809,-1.03442,-1.2719,0.14535,-0.0691847,0.00246197
-0.234298,-0.668781,-1.66642,-0.253385,-0.162222,0.0998847
0.920812,-0.366514,-0.680356,-0.12416,-0.202941,0.234329
-0.276145,-0.293428,0.0255369,-0.0304567,-0.305131,0.244502
-0.751793,0.51679,0.760281,0.216746,-0.202522,0.177383
0.414352,0.671225,1.22197,0.0736963,-0.149561,0.00834185
-1.69018,0.323537,1.58393,0.200098,-0.00331804,-0.0659462
-0.460481,0.0418482,0.662331,-0.268473,0.262946,0.00660753
-0.641168,-0.00368348,0.262028,-0.261683,0.136604,-0.0103086
-1.80678,0.0770673,0.0367414,-0.25856,0.122358,-0.0211172
0.539317,0.653291,0.234061,0.169334,0.250577,-0.209734
0.96302,-0.0334885,-0.198381,0.131504,0.0277941,-0.354694
0.867474,-0.79864,-0.708371,0.187429,0.081926,-0.107483
0.723756,-1.20291,-1.19678,-0.126335,-0.00839657,0.0752224
0.133607,-0.827814,-1.05286,-0.172787,-0.0957965,0.292969
-0.39636,-0.553988,-0.552689,-0.154584,-0.189924,0.4095
-0.623428,0.647678,0.571025,0.25763,-0.187414,0.35666
1.46487,1.22392,1.43034,0.168063,0.0115652,-0.0320509
-0.0981061,0.567474,0.49675,0.106846,-0.163298,-0.054125
-0.605092,-0.00261311,0.121097,-0.250655,-0.0136511,-0.0820365
-1.32223,0.312897,0.522749,-0.244908,0.0154409,-0.076145
-0.0901205,0.292812,0.58705,-0.195789,0.18959,-0.0964268
0.469306,0.352052,0.443436,0.294798,0.173879,-0.18216
-0.00321322,-0.323316,-0.426395,0.188367,0.25032,-0.267851
1.85577,-0.67796,-0.919997,0.105792,0.130293,0.0330585
0.212799,-0.981097,-1.26916,-0.142829,-0.0466525,0.0913973
0.34667,-0.412794,-1.19969,-0.175937,-0.0736498,0.285809
0.877233,-0.122773,-0.465874,-0.058259,-0.203512,0.266138
-0.523237,0.385729,0.632378,0.31612,-0.189437,0.218682
-0.334342,0.800603,1.1427,0.229392,-0.0574446,0.0165427
0.901401,0.639105,0.562608,-0.0144764,0.0178253,-0.012808
-0.558669,0.16445,0.215681,-0.24122,-0.00899646,-0.0193126
-0.902235,0.23279,0.386255,-0.240265,0.13367,-0.01414
-0.112174,0.578134,0.496586,-0.124204,0.17709,-0.112752
1.25533,0.351491,0.352757,0.386174,0.236969,-0.293557
0.665476,-0.383355,-0.666093,0.126649,0.190807,-0.22041
3.07097,-0.874833,-0.461687,0.152853,0.0681682,0.074774
-1.06695,-1.17284,-1.20423,-0.163679,-0.0818098,0.107195
0.738596,-0.69095,-1.0108,-0.127606,0.0134113,0.339488
0.230459,-0.197928,-0.240778,-0.0441554,-0.164325,0.393994
-1.18998,0.407496,0.689047,0.348687,-0.121222,0.308107
0.229228,0.812034,0.607291,0.162791,-0.0249786,0.0138988
0.635978,0.691555,0.190153,0.0258316,-0.239584,0.0298194
-2.25402,0.128377,0.50703,-0.285679,-0.135288,-0.092049
0.0496381,0.406454,1.17206,-0.189209,0.202596,0.00943077
1.25722,0.813341,0.851278,-0.0684083,0.273129,-0.19857
0.544421,0.0550966,0.11373,0.401621,0.220651,-0.35892
0.467459,-0.714191,-0.932478,0.186288,0.298345,-0.252496
2.6706,-1.11919,-1.13732,0.157545,0.100275,0.0584906
-0.0560745,-1.46411,-1.4666,-0.0661247,-0.101847,0.14428
0.00330869,-0.999057,-1.19228,-0.0481296,-0.10038,0.423821
-0.16378,-0.299733,-0.585625,-0.0294926,-0.25421,0.447096
0.0029406,0.769585,0.741818,0.245359,-0.254925,0.274827
0.205243,1.28764,1.51131,0.279121,-0.174887,0.112865
0.275632,1.07589,1.00479,0.137711,-0.0448593,-0.0441284
-0.840497,0.677651,0.540697,-0.244138,0.0634112,-0.0205321
-0.771871,0.743561,0.693455,-0.183144,0.265583,-0.134126
1.51832,0.958014,0.480416,-0.0832043,0.317378,-0.367339
0.710263,-0.377123,-0.192335,0.301049,0.205048,-0.498147
-1.5496,-1.31082,-1.36375,0.31655,0.124728,-0.183025
0.540437,-0.880051,-1.89834,0.195755,0.147362,0.227803
1.75742,-0.535024,-1.76711,-0.105083,-0.210873,0.297155
1.49135,-0.0230751,-0.777005,-0.108149,-0.221914,0.373914
0.778116,0.198638,0.0884026,-0.0303409,-0.227746,0.362912
-0.540175,0.567753,0.683401,0.273117,-0.238178,0.162634
-0.7198,0.765747,1.19298,0.243575,-0.182668,0.00876296
-0.335795,0.0981153,0.935666,0.161,-0.0588765,-0.118965
-1.96009,-0.467835,0.0665917,-0.162901,-0.0902279,0.0753701
-2.12896,-0.375099,0.0742306,-0.17257,-0.0670967,0.104882
-0.794462,0.153912,0.532112,-0.265855,-0.00154498,-0.0321175
0.0666565,-0.0105462,0.100886,0.107096,0.156682,-0.248809
0.123404,-1.31218,-0.857612,0.273013,0.220994,-0.338427
2.21341,-2.31954,-1.25052,0.385238,0.0251751,-0.0854413
0.00871434,-2.02075,-1.92143,0.056377,-0.218209,0.292805
0.157451,-0.743759,-0.962728,0.0100541,-0.395872,0.232552
-1.71677,-0.568417,1.4207,0.0218378,-0.462312,0.193144
0.354236,-0.379282,0.970724,-0.0402156,-0.00949612,0.142414
-0.330134,0.211859,1.5213,0.246004,-0.0705429,-0.0155166
-0.0887446,0.111571,1.71472,0.318953,-0.0336488,-0.114353
-0.79102,-0.299808,1.48874,0.0563151,-0.0466286,0.0277103
-0.748421,-0.512664,1.26138,-0.138922,-0.0205866,0.196174
-1.06029,-0.187569,0.443773,-0.106148,-0.10263,0.053155
-0.963372,-0.438769,0.0928471,-0.0642279,-0.118186,-0.102911
-0.518992,0.0367071,0.156306,0.0982503,0.046876,-0.24294
0.35197,0.0308082,-0.094005,0.0491082,0.0695278,-0.0979607
0.293632,0.163861,0.0947198,0.12726,-0.0450303,-0.0137141
-0.781861,-0.243246,0.917029,-0.112295,-0.236437,0.147484
-0.958916,-0.520006,1.43353,9.5129e-05,-0.204068,0.0426202
0.321306,-0.515474,0.823794,-0.0172758,0.227787,0.0189394
-0.0855567,0.457848,0.444547,-0.0468047,0.185509,0.036676
-0.718455,1.02664,0.831904,0.0868766,-0.301439,-0.105689
-2.17084,-0.635138,1.4167,0.440037,-0.33498,-0.000143528
-4.69041,-1.93941,1.54041,0.0355774,-0.305701,0.0782634
-4.52473,-1.94354,0.587223,-0.0359302,-0.0534732,0.27975
1.44445,0.118239,0.386198,-0.317483,0.043792,0.4664
2.19382,1.11508,0.395832,0.0801496,0.0928307,-0.0260512
1.76342,1.27194,0.174525,0.290135,-0.244971,-0.523024
0.200815,0.173434,0.387035,0.236589,-0.142445,-0.216729
-0.950586,-0.433482,0.213985,-0.109843,-0.172915,0.0976386
0.669298,0.0654774,0.787546,-0.186095,0.0667406,0.2271
-1.12016,0.038107,0.562787,0.0420914,0.112462,-0.14538
-0.508455,-0.0209159,0.705769,0.141286,-0.175454,-0.131747
-2.41429,-0.0919657,0.963701,0.291759,-0.309396,0.0842294
-5.36297,-0.448659,1.49491,0.137442,-0.345991,0.37892
-3.78853,-1.27932,2.61427,0.00543541,0.00830334,0.323518
-3.44844,-0.588724,2.59817,-0.103664,0.0450341,0.373796
-1.46481,0.633905,2.75327,-0.0702931,0.438817,0.229505
2.81083,1.5178,1.43461,0.162904,0.776266,-0.162131
0.630515,-0.172431,-1.16993,0.448653,0.357517,-0.441018
1.49995,-1.17433,-2.72983,0.158202,0.363613,-0.253876
2.12126,-2.47366,-1.83388,-0.0382084,-0.600914,-0.0230345
-2.87222,-1.2054,-1.881,-0.17956,-0.163612,0.316647
1.30203,-0.692605,-0.290236,0.0541066,-0.22167,0.394666
-0.210814,0.592975,1.0351,0.300929,-0.404515,0.280338
-0.0257579,0.894892,2.02731,0.315315,-0.0474747,-0.0461178
-0.167065,0.567351,1.1973,0.135219,-0.048446,0.169885
-2.47297,0.345631,0.742038,-0.204082,0.120465,-0.00735235
-0.170651,0.646138,1.11901,-0.246902,0.353205,-0.104868
1.28596,0.896347,0.886865,0.037539,0.270346,-0.356721
-0.875001,-0.421671,-0.39762,0.432014,0.305967,-0.392328
0.147815,-0.929789,-1.8856,0.110982,0.223258,-0.100058
1.17193,-1.19674,-1.55465,0.00505245,-0.00816774,0.0849245
-0.0379941,-0.691363,-1.30547,-0.216916,-0.105215,0.307323
1.0495,-0.323985,-0.789202,-0.053363,-0.175187,0.306371
0.121991,0.140633,-0.138472,0.230814,-0.324126,0.296284
-0.833837,0.790226,1.54821,0.200735,-0.20638,0.00734389
0.719563,0.851852,1.69638,0.187159,0.0236066,-0.0645782
-0.898268,0.127375,0.534173,-0.150833,0.0337964,0.0117902
-0.713165,0.205,0.3017,-0.208844,0.187165,-0.016857
-0.215577,0.461127,0.468764,-0.315705,0.144024,-0.161784
0.222373,0.376685,0.580882,0.193183,0.258376,-0.283332
0.0174838,-0.410612,-0.432492,0.270086,0.273258,-0.301528
1.10238,-0.829578,-1.03972,0.162967,0.201016,-0.0159699
0.58714,-1.02394,-1.28307,-0.156731,0.0230374,0.111111
0.816833,-0.529079,-1.47689,-0.195859,-0.0382513,0.333822
1.24732,-0.00162299,-0.709123,0.0373936,-0.141115,0.316452
-0.461927,0.335813,0.0474505,0.339852,-0.248144,0.263298
-1.52922,0.4184,0.658428,0.0892506,-0.275362,0.0170095
-0.889431,0.174052,1.13276,0.159289,-0.206266,-0.0567963
-1.74951,0.172495,1.37678,-0.247181,0.00535133,0.139236
-0.580098,0.307844,1.52801,-0.10293,0.215405,0.0819747
-0.108521,0.707884,0.96227,0.00630856,0.255502,-0.165053
-1.23355,0.156413,0.33012,0.38971,0.271985,-0.27273
0.368853,-0.105329,-0.55836,0.0650547,0.405746,-0.293141
2.12209,-0.729207,-1.04754,0.164137,0.194576,-0.0673886
1.03458,-0.992232,-1.67634,-0.133229,-0.0250528,0.0392659
0.294547,-0.960847,-1.5402,-0.071834,-0.104505,0.236793
-0.0646008,-0.512655,-0.742752,0.0823038,-0.253592,0.319423
-0.712938,0.244317,0.586482,0.232992,-0.250274,0.255043
0.213974,0.780941,1.5526,0.17926,-0.133715,0.0566885
-0.376797,0.531341,1.09217,0.18476,-0.031823,0.0016107
-0.990238,0.389357,0.306947,-0.254188,0.0649962,0.11022
-0.91163,0.625556,0.522821,-0.131966,0.153915,0.114926
-0.00870611,0.956958,0.699753,-0.0335116,0.183298,-0.175903
0.91959,0.687029,0.472845,0.254563,0.230566,-0.462953
0.529557,-0.186436,-0.199908,0.255791,0.21427,-0.376405
2.06009,-1.14123,-0.559583,0.0259345,0.186464,-0.134766
2.06067,-1.22094,-1.02098,-0.0195149,0.0852583,0.0318076
-0.244129,-1.46622,-0.959053,-0.101935,-0.0146289,0.260463
-1.41089,-1.07797,-0.689986,-0.04239,-0.0667517,0.451596
-0.649181,0.0900815,-0.0154516,0.270694,-0.155084,0.327399
1.26481,0.90492,0.736721,0.159488,-0.171667,-0.0353956
0.0178885,0.915363,0.952789,0.0710539,-0.216141,-0.0496963
-1.35745,0.107396,0.911242,-0.172749,0.00189334,-0.0498855
-1.19586,0.175437,0.756675,-0.215601,0.102262,0.00764239
-0.692665,0.507173,0.794172,-0.141627,0.176132,-0.139728
0.222536,0.400083,0.666521,0.0564334,0.232381,-0.262324
-0.725276,-0.223795,-0.360779,0.131411,0.256561,-0.255473
1.79626,-0.43725,-1.25067,0.0712031,0.284958,0.0484908
1.83846,-0.756648,-1.11925,-0.0173461,0.0512766,0.0464454
0.754666,-0.222533,-1.24878,-0.219758,0.00992489,0.222243
0.999681,-0.319718,-0.678415,-0.0798103,-0.0747367,0.262424
-0.740688,-0.00564928,-0.0453081,0.151181,-0.154911,0.196175
-0.810884,0.247545,0.749193,0.238978,-0.0869053,0.0862069
0.72242,0.775414,0.912733,-0.105078,0.00143272,-0.136604
-0.27458,0.266254,0.959755,-0.0158339,0.0574791,-0.0399477
-0.503355,0.165467,0.303055,-0.209529,0.228405,-0.0125871
0.515828,0.18719,-0.16403,-0.215702,0.218683,-0.0815413
1.00259,0.194257,-0.0750111,0.131511,0.178599,-0.20969
0.411277,0.0255537,-0.491623,0.167025,0.184382,-0.147692
2.01137,-0.322552,-0.839337,0.120904,0.196493,-0.00776219
1.59143,-0.694767,-0.975421,0.0171187,0.0625829,0.0942148
0.886483,-0.469613,-1.11105,-0.207085,0.00609148,0.22098
0.406537,-0.499165,-0.711721,-0.0869347,-0.0722142,0.312606
-0.953405,-0.0927705,-0.0669012,0.155467,-0.16135,0.287554
-0.0639638,0.507758,0.856971,0.211511,-0.0718432,-0.0183041
0.426054,0.593629,0.833533,0.0596472,-0.0813709,-0.044045
-1.19477,0.121288,0.243877,-0.0985035,-0.0178495,-0.011107
-0.35664,0.264347,0.327102,-0.272059,0.0960169,0.0649352
0.183031,0.517248,0.503212,-0.200918,0.107713,-0.0966284
0.81051,0.625342,0.5691,0.205473,0.185694,-0.264816
0.407039,0.114864,-0.0945303,0.273438,0.225048,-0.312101
1.65119,-0.552196,-0.912792,0.102972,0.217543,-0.0813493
1.27148,-1.02871,-1.26675,-0.00731015,0.0748013,0.0505385
0.915489,-0.791013,-1.47552,-0.14971,-0.0237745,0.241751
0.485221,-0.64074,-0.983739,-0.101118,-0.152139,0.344521
-0.568936,0.0719226,-0.0348795,0.239663,-0.208983,0.339356
-0.724693,0.569023,0.438265,0.467591,-0.184665,0.207715
-0.659693,0.868021,0.708527,0.0274103,-0.262806,-0.0249686
-1.15528,0.627563,1.69356,-0.0627095,-0.104433,-0.152268
-0.081462,0.524526,1.90926,-0.169351,0.297035,-0.143738
-0.542377,0.13664,0.72878,-0.160102,0.314549,-0.237238
-0.367253,-0.0888996,-0.278703,0.187859,0.355343,-0.232711
0.0180899,-0.207175,-0.924149,0.0554978,0.300675,-0.268017
1.86079,-0.570325,-1.41043,0.184444,0.157922,-0.0998393
1.67472,-1.19603,-1.6539,0.152881,-0.0771717,0.0233756
0.574518,-0.929025,-1.94715,-0.0927346,-0.209291,0.240379
0.273074,-0.819423,-0.94742,-0.0941725,-0.33805,0.332822
-1.0687,0.023105,0.813936,0.13431,-0.345421,0.37584
0.783455,0.724011,1.90709,0.339723,0.0162553,0.0283478
-0.968093,0.566988,0.757792,0.122465,-0.216819,-0.108573
-2.7498,-0.273654,0.594957,-0.163656,-0.0897952,-0.00814611
-1.44654,0.0371577,1.06233,-0.262414,0.0612537,0.0766476
-0.203064,0.736596,1.3145,-0.263319,0.159281,-0.0399204
0.90286,0.835911,1.02498,0.219468,0.305232,-0.285082
-0.135828,0.00889133,-0.392885,0.0774043,0.28803,-0.303853
0.664472,-0.847286,-1.35305,0.276149,0.203321,-0.136921
0.893259,-1.03883,-2.22182,-0.0135821,-0.0768905,0.0600246
0.818983,-0.864276,-1.96052,-0.0753528,-0.282263,0.214881
-0.347588,-0.638108,-0.555254,-0.112276,-0.433202,0.315386
-0.736536,0.388916,1.27882,0.157667,-0.327526,0.251701
0.383011,1.13611,2.41715,0.419295,-0.103384,-0.132582
-0.445761,0.456825,1.28311,0.213276,-0.0913833,-0.0650327
-2.55993,-0.224733,0.219095,-0.133645,0.000344962,-0.0094769
-1.84832,-0.157183,0.413392,-0.209873,0.139359,0.0258604
-0.613958,0.39958,0.827271,-0.208188,0.0987703,-0.0789582
-0.141374,0.482317,0.609836,0.0714586,0.150168,-0.262082
-0.611381,-0.137742,-0.0919147,0.15333,0.156277,-0.282297
-0.201018,-0.870184,-0.89921,0.245297,0.101944,-0.123394
0.00440236,-1.01061,-1.81328,-0.0149866,-0.0792504,0.0206966
-0.134325,-0.880776,-1.27854,-0.116162,-0.281193,0.169983
-0.479402,-0.417796,-0.0697952,-0.131508,-0.336884,0.236868
-0.207118,0.269316,1.23032,0.0538159,-0.233982,0.158973
-0.348959,0.698222,1.93068,0.195989,-0.107739,0.0133042
-1.16316,0.411591,1.22684,0.0837907,0.0156276,-0.0772479
-1.33581,-0.13521,0.417032,0.0344949,0.0750576,-0.0522874
-1.12274,-0.0916614,0.202057,-0.117922,0.0882764,-0.0175586
-0.686696,0.0900207,0.263559,-0.134132,0.0592221,-0.0771137
-0.10338,0.091764,0.11599,-0.06958,0.0520388,-0.142736
-0.6048,0.00697335,0.0921801,0.183844,0.0457045,-0.114034
-0.397468,-0.264465,-0.474815,-0.0747999,0.0329578,-0.00514621
-0.182007,-0.39345,-0.384451,0.0767858,-0.0419626,0.0565486
-0.465815,-0.27725,-0.245376,0.0332211,-0.0704179,0.103353
-0.245242,-0.0933142,-0.0535484,-0.0417634,-0.113751,0.0929444
-0.279753,0.00984411,0.444923,-0.0796697,-0.0912204,0.0634376
-0.505754,0.0876372,0.747438,-0.019592,0.0108899,0.038245
-0.49396,0.22819,0.536499,-0.0409323,0.0792763,-0.00321561
-0.214561,0.178017,0.295591,-0.0614125,0.0746386,-0.0601974
-0.18119,0.0875577,0.111892,-0.0102506,0.0803659,-0.0720078
0.0338619,-0.0211013,-0.174656,-0.0420928,0.0495093,-0.0622624
0.0172028,-0.101977,-0.228304,0.000205994,0.0124166,-0.027725
0.407682,0.099972,-0.154474,-0.0845071,0.0140182,-0.000501215
0.0028785,0.000173047,-0.00584795,-0.0196106,-0.0121176,-0.0147604
0.193682,0.055393,-0.057283,-0.0207288,0.0140392,-0.0235785
-1.4993,0.251312,0.604377,0.0935981,0.0478543,-0.135099
0.540693,0.134941,0.254998,0.175039,0.253844,-0.126648
1.31545,-0.163467,-0.591438,0.0825885,0.0441729,-0.00447339
0.0385241,-0.537164,-0.778983,0.0801167,-0.0436389,0.0510964
-1.07174,-0.631033,-1.00562,-0.0610017,-0.196586,0.129045
-0.779619,-0.304603,-0.43087,-0.0453126,-0.278573,0.0747046
0.380626,-0.280173,0.608003,-0.00507241,-0.13988,-0.144476
-0.495942,0.018325,1.36655,0.112448,-0.193668,-0.0112754
-2.23612,-0.0367097,0.981776,0.0943171,0.0286146,0.139309
-1.58124,-0.160583,0.620983,-0.0750313,0.0312158,0.0745592
-1.54254,-0.160664,0.850563,0.0112949,0.00953399,0.0138445
-1.13266,-0.133261,0.740614,-0.151296,0.079433,0.0205022
-0.567425,-0.1187,0.458983,-0.0912535,0.132324,-0.110711
-1.13565,0.0446521,0.181492,-0.108266,0.0748558,-0.0902206
-0.270047,0.34631,0.207053,0.103994,0.164333,-0.0916019
0.244618,0.0460393,-0.896077,0.0643582,-0.0306457,-0.0419431
-0.426126,-0.377092,-1.03389,0.0106558,-0.126683,0.000800252
0.0265494,-0.161527,-0.290176,0.076475,-0.173206,0.00688601
-0.531586,0.0207408,0.327539,-0.0561782,-0.128065,-0.0182593
-0.138823,0.161958,0.602744,-0.121071,-0.084724,-0.0836456
-0.15249,0.0480515,0.679795,-0.0276137,-0.0120001,-0.0790743
-0.444555,-0.0646241,0.906803,0.110844,-0.00963828,-0.106089
-1.2885,-0.470407,0.0603474,0.0912365,-0.0552656,0.0169133
-1.51308,-0.453123,-0.284845,0.0191805,-0.170393,0.0341468
-1.39731,-0.427871,0.53447,-0.261869,-0.0397134,-0.00641483
-1.11604,-0.100268,0.699006,-0.197484,0.027905,-0.10449
-0.630205,0.151641,0.749234,-0.222247,0.22296,-0.166331
0.260636,0.391583,0.642383,0.323897,0.234127,-0.181803
-0.489788,-0.302663,-0.536804,0.0937723,0.269559,-0.21099
1.43981,-0.352847,-1.29758,0.0989277,0.108276,0.0426365
0.815643,-0.496125,-1.15996,-0.159308,-0.073954,-0.00120914
0.643842,-0.339573,-0.981118,-0.112331,-0.119636,0.166075
0.199144,-0.278734,-0.341643,-0.00236231,-0.208089,0.148547
0.0978858,0.0979989,0.30891,0.152494,-0.182756,0.122284
0.182015,0.331986,0.824646,0.233027,-0.127618,-0.0511488
0.205732,0.152124,0.642003,0.0819163,-0.133149,0.0861598
-2.23197,-0.152619,0.492614,-0.111757,-0.0114163,0.0560248
0.195256,0.382041,0.690908,-0.200781,0.158572,-0.0407646
1.41361,0.536579,0.606053,-0.140955,0.189833,-0.21654
0.623022,0.129586,0.138155,-0.0662025,0.109233,-0.101861
-1.0246,-0.164983,-0.387735,0.237036,0.0198836,-0.113306
2.48183,-0.141899,-0.864123,0.0781286,0.245066,0.0169295
1.5507,-0.196513,-1.05878,-0.00431299,-0.100188,0.058125
-1.09285,-0.665226,-0.430849,0.00773305,-0.0366511,0.13356
-0.465441,-0.311151,-0.692838,-0.179204,-0.0591798,0.132644
0.289318,0.0724952,-0.415915,-0.0637344,-0.160527,0.0575985
-0.0821007,0.359955,0.432953,0.0523329,-0.255442,-0.00951022
-0.790986,-0.0943696,1.67168,0.160621,-0.178249,-0.214163
-2.43481,-0.40059,0.886727,-0.026363,0.13695,0.00494045
-1.04165,-0.499376,0.240911,-0.030264,0.122254,0.15937
-0.65449,-0.00257532,0.294052,-0.233633,0.141834,0.149014
0.00243407,0.293947,0.214472,-0.232539,0.156315,-0.0320688
0.801611,0.556294,0.184727,0.0631391,0.112142,-0.147768
-0.327031,-0.129358,-0.192495,0.266152,0.0895561,-0.29432
0.200646,-0.491487,-0.878911,0.102285,0.0755255,-0.0419546
0.104644,-0.675486,-1.19461,0.211156,-0.0763263,0.106851
-1.07998,-0.878907,-1.53868,0.110145,-0.267268,0.279842
-1.17564,-0.733223,-0.676908,0.0192106,-0.49286,0.270161
-0.925899,-0.586986,1.17705,-0.0238529,-0.303547,0.119632
-1.30544,-0.680564,1.90843,0.218476,-0.0766228,0.0608133
-2.54115,-0.680633,1.57,0.106102,0.0046933,0.097818
-1.76542,-0.255429,1.59549,0.05445,0.0787884,0.188357
-1.04841,0.0644296,1.66219,-0.0109487,0.285841,0.0976497
-0.403196,0.310061,0.844809,-0.0251238,0.336643,-0.109488
-0.587023,0.147486,0.238999,-0.136866,0.253624,-0.119094
-0.0513576,0.0152078,-0.199152,-0.160712,0.242495,-0.186357
0.339902,-0.247934,-0.46535,-0.0546426,0.105339,-0.151321
-0.283737,-0.356071,-0.381296,0.0952673,0.0851287,-0.028448
-0.457121,-0.492104,-0.747174,0.0951819,0.049224,0.123822
0.754289,-0.142717,-1.01432,0.23527,-0.0218208,0.0300753
2.09058,0.165051,-1.22433,0.00308168,-0.226808,0.144757
3.88951,0.524316,-0.178556,-0.139008,-0.151716,0.252669
-0.504759,0.452724,1.02982,-0.0539194,-0.252138,0.128249
-3.58432,-0.151878,1.48484,0.201935,0.0673829,0.234581
-1.54032,0.107614,0.715413,0.0249922,0.217748,0.0818523
0.0952933,0.239599,0.232726,-0.00233805,0.121986,-0.0331231
0.013074,0.438845,-0.300557,-0.0727345,0.0315728,-0.120255
1.33114,0.610316,-0.305071,-0.121739,0.0354795,-0.239112
1.35217,0.442126,-0.335713,-0.156148,0.0107915,-0.137656
1.21998,0.514556,-0.110282,-0.104131,0.135355,-0.0813519
1.57375,0.351401,-0.00654197,-0.031659,0.175217,-0.0828021
0.517914,0.100011,-0.459397,-0.0392845,0.117836,-0.00465727
-0.273284,0.312387,-0.307958,0.122279,0.138964,-0.0537693
-0.175825,0.0749403,-0.298049,0.0387555,0.147206,0.0335257
3.13878,0.352542,-0.654801,-0.0220541,0.238041,0.167469
2.98473,0.396368,-0.922127,-0.228572,0.0817454,0.161417
2.4332,0.139109,-0.687214,-0.0949305,0.318069,0.135554
1.49752,-0.145412,-0.941655,-0.0176325,0.186449,0.201091
0.6977,0.162876,-1.21656,0.15721,0.0297472,0.190748
1.67442,0.479282,-0.856746,0.208694,-0.0863031,0.0523384
2.13232,-0.0555241,-0.436662,0.155428,-0.258035,0.0779272
-0.720902,-0.416507,-0.0371291,0.0785668,-0.376459,0.163436
-1.72976,-0.380797,0.57456,-0.216657,-0.174722,0.121836
-0.602444,-0.268779,0.51334,-0.166773,-0.0881835,-0.0408417
-0.683789,-0.833886,0.280637,0.00518543,-0.13716,-0.0916665
-3.30325,-0.509612,1.00978,0.190929,-0.126699,0.151097
-1.94387,0.0651145,1.56639,-0.113547,0.0971178,0.134568
1.67251,0.199753,1.63078,0.253092,0.242389,0.0846478
-0.734557,0.170072,-0.235948,-0.139908,0.00723523,0.106699
-0.623818,0.165822,-0.588028,-0.13448,0.00202236,0.000932634
-0.90294,0.159398,0.3564,-0.158062,-0.119861,-0.0908138
-1.11774,0.255027,1.6548,0.204563,0.0404301,-0.0758046
0.0641694,-0.109746,1.07215,0.0597265,0.35792,-0.204227
0.538243,-0.590783,-0.682261,0.107923,0.0740904,-0.00758529
-2.11366,-0.96657,-1.23015,-0.264984,0.00520194,0.0267452
-0.622363,-0.517544,-0.661212,-0.263078,-0.0750796,0.105651
-0.0889743,0.268433,0.37515,-0.134262,-0.290536,-0.124389
-0.243495,0.380137,1.07782,0.193085,0.139957,-0.00444007
2.19929,0.287829,1.19339,0.257376,0.167787,-0.141299
0.817576,-0.397345,-0.319523,0.185582,0.183126,0.0539303
-0.0677063,-0.584784,-1.57783,-0.174271,0.0901178,0.123616
0.680096,-0.30333,-1.24627,-0.116514,-0.0444782,0.215254
0.171516,-0.171184,-0.398805,-0.154702,-0.180427,0.174337
0.591527,0.390333,0.436279,0.19793,-0.164579,0.0579202
-0.158482,0.469526,0.902018,0.108977,-0.123053,0.00672495
-0.433413,0.319743,0.527523,-0.0732692,0.012153,0.0887223
-0.960288,0.221149,0.457402,0.00168478,0.0746101,0.0555009
-0.883904,0.227499,0.39081,-0.290146,0.0972727,0.0060631
-1.21694,0.129843,0.293986,-0.144339,0.0970182,-0.156691
0.157015,0.227842,0.225936,0.0194643,0.22124,-0.233809
0.205723,-0.218163,0.0577546,0.279052,0.155631,-0.184784
0.986568,-0.145099,-0.682973,0.0189804,0.248558,-0.0259193
2.76701,-0.529587,-0.797331,0.0584204,0.142074,0.0970162
0.676353,-0.853685,-1.14512,-0.119007,0.0369066,0.206142
0.275394,-0.67032,-1.08132,-0.0977972,-0.0426855,0.351129
-0.560754,-0.141851,-0.591289,-0.0781845,-0.166364,0.308224
0.351762,0.694901,0.585294,0.280807,-0.140896,0.168151
-0.16394,0.757963,1.08585,0.204164,-0.146297,0.0411912
-0.0989051,0.53456,0.368352,0.0709611,-0.0396664,0.0241256
-0.626613,0.0985286,0.307121,-0.149564,0.0330015,0.000539839
-0.922021,0.337109,0.612977,-0.215908,0.0370508,0.0189911
-0.552162,0.512428,0.80009,-0.167859,0.170316,-0.114393
0.470746,0.378661,0.612652,0.132267,0.213049,-0.245636
-0.756691,-0.255697,-0.249702,0.0912451,0.253957,-0.207717
0.368255,-0.545843,-1.08039,0.0465978,0.218382,-0.0353867
0.732611,-0.637607,-1.27211,0.0746655,0.070701,0.0954314
2.14112,-0.236304,-1.15805,-0.0233571,-0.00968447,0.159695
0.950676,-0.369607,-0.951909,-0.072601,-0.109739,0.260187
0.137439,-0.138095,-0.65941,-0.121024,-0.125935,0.272253
0.855162,0.425369,0.0398538,0.0583081,-0.135274,0.191129
0.451892,0.708606,0.832684,0.337735,-0.195671,-0.0113121
-0.272964,0.631376,1.07939,0.0634198,-0.0250984,-0.0431448
-0.368515,0.239863,0.533696,0.0293626,-0.0148756,0.0112527
-1.74663,-0.0752101,0.296753,-0.217601,0.0672595,0.0153795
-1.03908,0.137147,0.347386,-0.208665,0.119567,0.0460057
-0.581354,0.457208,0.390807,-0.221844,0.136592,-0.0611661
0.482853,0.464893,0.58381,0.149967,0.191063,-0.26881
-0.449255,-0.0494788,0.00948511,0.148958,0.219142,-0.32052
1.09973,-0.238782,-0.9482,-0.0528794,0.238158,-0.0761082
2.49041,-0.837064,-0.5828,0.0570499,0.186756,-0.0164001
0.778242,-1.08789,-1.35253,-0.153534,0.0103239,0.20054
0.0763709,-0.98523,-1.14964,-0.000144482,-0.0740767,0.341466
-0.479223,-0.251596,-0.414659,0.085813,-0.155038,0.340575
-0.484592,0.436897,0.446529,0.316472,-0.181162,0.231146
-0.278884,0.571808,0.927335,0.133726,-0.184674,0.00502962
-0.804198,0.581697,1.21475,0.120269,-0.140366,-0.0701473
-0.769787,0.28579,1.05482,-0.201823,0.0827463,-0.0441207
-0.58873,0.239949,0.807438,-0.133724,0.194256,-0.0434975
-0.405037,0.238855,0.406935,-0.0380941,0.212541,-0.123961
-0.196047,0.279184,0.272209,0.121746,0.254303,-0.156717
0.721685,-0.0140759,-0.286725,0.0766391,0.38171,-0.230173
1.9329,-0.475647,-1.18158,0.179134,0.191075,-0.0501515
1.03209,-0.949643,-1.5468,0.00206339,0.043914,0.0639833
0.969525,-0.639858,-1.48786,-0.103521,-0.0353867,0.221606
0.0953446,-0.787262,-1.12179,-0.00407475,-0.216129,0.318351
-0.509169,0.0592962,-0.58019,0.187024,-0.306794,0.269029
0.710854,0.723252,1.09258,0.0980702,-0.292688,-0.0719445
-0.270976,0.649229,2.02591,0.0684685,-0.212958,-0.0466899
-1.7764,-0.125446,1.18409,0.149213,0.0525061,-0.00173539
-1.94603,-0.250738,0.458492,-0.145944,0.147479,0.114331
-0.00273974,0.226745,0.819449,-0.193273,0.23024,0.0140114
1.1588,0.532447,0.879425,-0.0299677,0.30856,-0.163691
0.143985,0.0810338,-0.0652963,0.246745,0.326298,-0.207352
1.31676,-0.157969,-1.23492,0.0302556,0.363911,-0.109338
2.49108,-0.400444,-1.31024,0.187439,0.101379,0.0624332
0.905046,-0.515275,-1.43517,-0.0845988,0.0357755,0.199018
1.45841,-0.374194,-1.10997,-0.0372787,-0.03272,0.338552
0.227886,-0.149926,-0.41424,-0.0328305,-0.0974293,0.360972
0.280879,0.274604,0.165193,0.204474,-0.0782617,0.282604
-0.0314857,0.587668,0.637817,0.26167,-0.0616865,0.0472857
0.677651,0.735184,0.336268,0.0153812,-0.0520549,-0.0824034
0.210773,0.218216,0.256537,-0.0536911,-0.0133965,-0.117373
0.594733,0.241408,0.0402971,-0.159011,0.121731,-0.0777263
0.389308,0.311845,-0.0734514,-0.222359,0.105715,-0.0596354
-0.245526,0.277265,-0.373982,0.0750507,0.159045,-0.0286719
-1.76903,0.319955,-0.599008,0.181216,0.039148,-0.152627
0.919337,0.111464,-0.58655,0.088189,0.122866,-0.00235343
2.81465,-0.35198,-0.303363,0.0471272,-0.028695,0.0436285
0.749764,-0.250328,-0.570975,-0.132957,-0.114264,0.109551
-0.271118,-0.310367,-0.144566,-0.0673631,-0.117092,0.185827
-0.512274,0.040937,0.443394,0.0464281,-0.0782838,0.175927
-0.302257,0.209963,0.715427,0.33835,-0.0490313,0.0390495
-0.229413,0.118503,0.169204,-0.0330206,-0.0413813,-0.110048
-0.619156,-0.29097,-0.0585853,0.0203585,-0.143202,-0.035633
-1.05261,-0.323724,0.23848,-0.170535,-0.0752075,0.0165036
-0.332543,0.0599458,0.523576,-0.148508,-0.0407462,-0.0140464
0.0562743,0.326859,0.439914,-0.121022,0.0141722,-0.112332
-0.233418,0.155775,0.134864,0.052276,0.0217741,-0.105622
-0.482345,-0.206958,-0.120286,-0.0334998,0.0507652,-0.0504228
0.158203,-0.329814,-0.247823,0.131653,0.0293177,-0.0416017
-0.110642,-0.416757,-0.796843,-0.0298446,-0.115873,0.0197423
-0.85468,-0.531253,-0.470021,-0.0554399,-0.20434,0.0942006
-0.680857,-0.147324,0.347448,-0.0264556,-0.179886,0.115724
-0.226006,0.227932,0.971099,0.0150445,-0.133768,0.0112327
-0.514224,0.312098,1.53524,0.275996,-0.0493728,0.00303668
-0.997399,-0.110998,0.729284,-0.110654,0.127681,0.0107111
-1.62415,-0.249791,-0.0239731,0.0846707,0.0117819,0.0159198
-1.09963,-0.0224261,0.155202,-0.21902,0.0686078,-0.0154997
-0.126113,0.210921,0.623199,-0.108293,0.0406513,-0.162361
0.0710756,0.140583,0.386733,-0.0611787,0.0879445,-0.200947
-0.31826,-0.11022,-0.102466,0.0167017,0.0869441,-0.106012
-0.380868,-0.518805,-0.59102,-0.0823688,0.10634,-0.0724022
-0.0810385,-0.322115,-0.534283,0.0323904,-0.0584092,0.0219179
-0.34366,-0.309141,-0.550116,-0.0418441,-0.0654622,0.0945171
-0.122519,-0.116695,-0.310098,-0.0401857,-0.168182,0.115522
-0.895236,-0.121628,0.370688,-0.0151913,-0.150441,0.123341
-1.06708,-0.0864713,0.772374,0.0150769,-0.123597,0.0720016
-1.76024,-0.13826,1.29457,0.214895,-0.0128458,0.0284004
-0.675478,0.147458,0.632031,-0.0533924,0.022216,-0.0227783
-2.05259,-0.336843,0.314966,-0.0127475,-0.0391213,-0.0421144
-1.26157,-0.0585709,0.44357,-0.129816,0.0192571,-0.0125639
-0.893462,0.194414,0.791193,-0.105385,0.0619176,-0.12454
-0.304168,0.0450244,0.500351,-0.0737257,0.0790098,-0.238026
-0.758159,-0.213173,-0.00991179,-0.00715089,0.0635924,-0.193398
-1.27461,-0.864063,-0.714296,-0.154964,0.0396844,-0.0221298
-1.07104,-0.73546,-0.545089,0.156583,-0.0389995,0.0921658
-0.72642,-0.387628,-0.546876,-0.025819,-0.146985,0.111103
-0.743978,-0.194014,-0.0236824,-0.0329291,-0.269763,0.120325
-1.1859,-0.00660191,0.959388,-0.0385064,-0.202906,0.106446
-0.931127,0.428398,1.68245,-0.00511372,-0.0396881,0.0420604
-0.490261,0.244993,1.62872,0.106485,0.117049,-0.093885
-2.41435,-0.272828,0.778708,0.344155,0.171003,-0.0388357
-2.40795,-0.506707,-0.431973,-0.0812855,0.126413,0.111589
-0.495514,-0.508308,0.341345,-0.07679,-0.229347,-0.137627
-1.60512,-0.231953,0.947372,-0.130861,-0.100768,0.116802
-1.23252,0.466015,1.13185,-0.158832,0.0680737,0.00441766
-1.1347,0.927918,1.14321,0.0733488,0.171603,-0.115057
-1.02714,0.565044,0.404924,0.233915,0.258855,-0.342842
-0.415705,-0.267457,-1.0071,0.0465477,0.222754,-0.208876
0.0391941,-1.02548,-1.831,0.176432,0.0387223,-0.0898308
-0.25448,-1.09447,-1.76467,-0.0145324,-0.210951,0.11649
-0.913182,-0.694007,-0.754272,-0.0791072,-0.340065,0.234896
-0.353162,0.12061,0.628214,-0.0249125,-0.349994,0.171508
-0.0335032,0.852306,2.25431,0.275381,-0.237474,0.0466368
-1.81641,0.475651,2.57498,0.139605,0.116945,-0.130938
1.20231,0.576038,0.953754,0.035682,0.330178,-0.0530778
-1.18663,-0.143669,0.0065823,-0.229177,0.265086,-0.155604
0.881046,-0.04614,-0.218498,-0.151288,0.403509,-0.0985438
1.71067,-0.0157635,-0.655611,-0.165786,0.231316,-0.0664544
2.9128,-0.118801,-0.818565,0.129862,0.265411,-0.035953
1.88891,-0.875797,-1.38297,0.24594,0.216429,0.115496
3.50103,-0.28295,-1.62762,0.17445,-9.71332e-05,0.328991
-0.117787,-0.101655,-0.867907,-0.133763,0.0093334,0.169012
1.12868,-0.210199,-0.409327,-0.0559373,0.131519,0.320014
-0.571685,-0.253673,-0.362171,0.0241401,0.021273,0.239103
0.153944,0.302559,-0.52259,0.0555085,0.0831085,0.222223
0.891225,0.15077,-0.176816,0.203587,-0.255903,-0.00664699
-1.58058,0.0971083,0.326309,-0.042286,-0.173802,0.00714785
-0.55477,0.136794,0.361447,0.123686,-0.110968,0.0346444
-0.382917,0.319653,0.765804,-0.192753,-0.138492,0.0270375
-1.73687,0.435531,1.07263,-0.149118,0.100669,-0.108517
-1.42863,-0.0296398,0.181465,-0.228326,0.346849,-0.245578
-0.384933,-0.131395,-0.343037,0.163924,0.268852,-0.101901
-0.423322,-0.603855,-0.866584,0.160361,0.25125,-0.187133
1.23155,-0.480387,-1.4315,0.186799,-0.0310172,0.106686
0.59311,-0.445868,-1.3938,-0.0417073,-0.265341,0.198382
0.634964,-0.435416,-0.743408,0.0569597,-0.384433,0.223588
1.23217,-0.00078821,0.428942,-0.135933,-0.441879,-0.0132781
-0.933435,-0.029336,1.74069,0.404381,-0.365046,-0.170666
-1.26474,-0.668864,1.84143,0.434415,-0.0622352,0.46628
-1.1178,-0.399502,1.20681,-0.0615957,0.0860203,0.19826
-1.91899,-0.0667544,1.06037,-0.211191,0.162518,0.276354
-1.99554,0.64239,0.45277,-0.215629,0.106095,0.355634
-0.199001,1.12744,0.78315,-0.0642635,0.0556278,-0.0329295
-0.640833,1.20107,1.35412,0.155437,0.0864886,-0.257956
-2.07257,0.83716,0.768633,0.199548,0.261298,-0.227169
1.07261,0.111238,-0.14582,0.0927005,0.385941,-0.291896
1.38104,-0.659407,-1.12876,-0.0707341,0.152861,-0.139656
1.15949,-0.83267,-1.43518,-0.138198,0.0175925,0.109995
0.112367,-0.695872,-0.586329,-0.127316,-0.0259419,0.145943
-0.520856,-0.415612,0.0668608,0.0360165,-0.0539559,0.266132
-0.800975,-0.0342071,-0.37996,0.300664,-0.0431234,0.0825477
0.746494,0.25299,0.107321,-0.0917999,-0.201914,0.0504341
0.42555,0.532027,0.472813,0.151364,-0.0591491,-0.139573
-0.652342,-0.00142233,-0.0153487,-0.140002,-0.0491013,-0.204857
-0.451323,-0.0473697,0.103686,-0.192346,-0.127377,0.00852525
0.894399,0.324066,0.641077,-0.12937,-0.0109677,-0.0263197
-0.422549,0.315432,0.730024,0.24442,0.0803121,-0.130658
-0.0638614,-0.146599,-0.125252,0.0459039,0.207794,-0.108352
0.861743,-0.337599,-0.930445,0.058052,0.0861172,0.0285188
0.803805,-0.289621,-1.08213,-0.101878,-0.0466724,0.0591403
0.871568,-0.16947,-0.748481,-0.0890781,-0.127215,0.11386
-0.904398,-0.403484,-0.484639,-0.0602522,-0.269084,0.177858
-0.701766,0.31787,0.337121,0.0442402,-0.207877,0.11255
0.333671,0.688282,1.59266,0.175707,-0.120549,-0.0471957
0.298167,0.239151,1.41175,0.12126,0.0823896,-0.247758
-1.5202,-0.721375,-0.19899,0.0923903,-0.113191,0.0276963
-3.3904,-0.975333,-0.746724,-0.179896,-0.000730276,0.150796
-1.18191,-0.438558,0.101145,-0.207482,-0.0785627,0.0677701
0.0676681,0.649254,0.974022,-0.260999,-0.102905,-0.116745
0.317339,0.711712,1.60102,0.316457,0.129589,-0.143768
0.842415,0.323064,0.545194,0.184578,0.256051,-0.252929
0.0897343,-0.449897,-0.824521,0.116538,0.220979,-0.0729212
0.775262,-0.623723,-1.52646,-0.084262,0.0911523,0.00637245
0.802965,-0.463047,-1.3989,-0.135273,-0.0709444,0.106284
-0.203868,-0.573199,-0.656407,-0.0513226,-0.244703,0.143027
-0.904996,-0.0310817,0.157421,0.126339,-0.269734,0.1385
0.28574,0.614918,1.42623,0.155535,-0.157987,-0.0407268
0.792662,0.508116,1.35606,-0.0100449,-0.0172616,-0.0692552
-0.952668,-0.0907378,0.482441,0.0360708,0.048038,0.0336129
-1.97906,-0.0642783,-0.124531,-0.141206,0.134611,0.118444
-0.000609284,0.32492,-0.118566,-0.125023,0.125229,-0.0221745
-1.13772,0.202287,-0.153813,0.0616003,-0.105065,-0.326581
0.612697,-0.982267,-1.76779,0.604729,0.435839,-0.189144
-0.822131,-1.59284,-3.48267,0.352213,0.0229238,-0.272243
-0.78625,1.50869,-2.35251,-0.0920731,-0.333382,0.435752
3.08483,1.71914,0.236232,-0.313399,-0.422056,0.0670688
1.30835,1.25742,0.157669,-0.356555,0.320295,0.0154092
0.409881,1.13365,-0.259256,-0.0792832,0.082501,-0.0242313
0.447083,0.00411954,0.119162,0.233743,0.124119,0.0356848
-0.103438,0.335635,-0.110108,0.20166,0.128121,0.118682
0.754087,0.165723,0.0100582,0.088951,-0.283903,-0.315655
0.670538,0.274493,-0.491015,-0.155816,-0.150366,0.0431257
0.746886,0.0731818,-0.223345,-0.0485505,-0.220314,-0.144571
0.495611,0.254398,-0.513326,0.0051403,-0.206776,0.0128942
-0.157468,0.112139,-0.0922888,0.315664,0.142693,0.00276375
-1.52062,0.501668,-0.070641,0.121515,0.175047,0.176668
-0.509629,0.116608,0.0793088,-0.0281076,-0.0340453,0.142843
-1.75711,-0.413806,0.71134,-0.540315,-0.298711,-0.125221
0.0779686,-0.868389,-0.175386,-0.221551,-0.0988023,-0.0482169
-1.79625,-0.991795,0.787497,0.0331296,-0.365718,-0.0856361
-2.05518,-1.88832,2.4729,0.223839,-0.35941,0.158318
0.280843,-1.60799,2.62758,0.252009,0.327824,0.310687
-0.101056,-0.0725854,1.97823,0.274346,-0.0364589,0.0244833
-2.03046,0.149494,0.737671,-0.146605,0.13125,0.0793052
0.0729152,0.480127,0.488146,-0.304799,0.199838,0.101192
0.532456,0.680972,0.472805,-0.193087,0.185099,-0.253747
-1.07262,0.120227,0.0408077,0.295772,0.166285,-0.259951
-0.20779,-0.551814,-1.00766,0.294292,0.251207,-0.13137
0.968691,-0.778143,-1.80893,0.0440466,0.00972214,-0.0207547
0.609434,-0.809847,-1.67913,-0.192424,-0.18027,0.213476
0.190475,-0.579912,-0.518094,-0.0546548,-0.267998,0.243565
-0.515346,0.162246,0.622055,0.0932833,-0.257046,0.266066
0.116734,0.738459,1.65118,0.344474,-0.124786,0.0165443
-0.512457,0.367416,1.67119,0.211094,0.00814328,-0.117419
-0.374579,0.135537,0.606547,0.0305675,0.124068,-0.0328218
-1.39608,-0.373432,-0.0030517,-0.136242,0.118575,0.017635
-0.858693,-0.0299783,-0.134364,-0.232001,0.156657,0.065603
0.498845,0.425603,0.195369,-0.148869,0.0829994,-0.0957172
-0.0137791,0.209909,0.11803,0.0638419,0.0336208,-0.199116
-0.456037,-0.132482,-0.0579613,0.310103,0.102033,-0.224586
0.831109,-0.305677,-0.795913,-0.00790048,0.0748996,-0.0159235
0.338679,-0.638539,-0.621286,0.030115,-0.0226131,0.110914
0.264316,-0.330811,-0.778753,-0.0814341,-0.028064,0.19108
0.201338,-0.247806,-0.554715,-0.0775793,-0.166829,0.210667
-0.754918,0.127414,0.164321,-0.0306248,-0.189499,0.181141
-0.0500759,0.608839,1.17295,0.113045,-0.142342,0.0136196
-0.922259,0.154823,1.68817,0.328381,-0.00818703,-0.167814
-0.963327,-0.0619574,0.361302,0.0139928,0.0651263,0.0444643
-1.75834,-0.507263,-0.0937499,-0.0730911,0.027917,0.016343
-0.606413,0.131576,0.129601,-0.212937,0.05672,0.0946259
-0.0657719,0.435544,0.414885,-0.175862,0.025509,-0.10802
-0.167696,0.269573,0.353928,0.038118,-0.00595692,-0.192916
-1.24932,-0.181937,0.00805989,0.296163,0.079076,-0.132559
0.00553385,-0.236982,-0.652224,0.142258,0.0629749,-0.0554263
0.0522716,-0.748952,-0.936001,0.0534215,-0.104284,0.0279664
-0.847383,-0.875994,-1.03172,0.00386524,-0.24957,0.178348
-1.27694,-0.41293,0.0861332,-0.0770512,-0.280203,0.220247
0.227301,0.54686,1.33356,-0.0487917,-0.175603,0.195552
-0.546676,0.876175,1.99901,0.0716487,-0.0931503,-0.0295588
-2.02818,0.344007,1.8457,0.466259,0.133203,-0.0381982
-2.08661,-0.18878,0.0381969,-0.139653,0.230858,-0.0418412
-1.28848,-0.510684,-0.55954,0.0142012,0.0618583,0.0181398
-2.21788,-0.474942,-0.307786,-0.14555,-0.0200268,0.016044
-0.338314,-0.162475,0.372771,-0.0839863,-0.209037,-0.178702
-1.85198,-0.122079,0.759238,-0.115047,-0.0472684,-0.135024
-0.136602,0.0766575,1.22603,-0.0465896,0.107841,0.00679636
-0.708301,0.372058,0.750292,0.113034,0.20874,-0.0554485
0.112425,-0.0103549,-0.554873,-0.131009,0.191355,-0.0745683
-0.183549,-0.37631,-0.550364,0.139177,0.0613313,-0.0498246
-0.52904,-0.394007,-1.11853,-0.176883,-0.0110556,0.0267565
-0.293496,-0.185654,-0.705987,-0.14943,-0.0196997,-0.0175
0.991151,0.167745,-0.220664,-0.13956,0.0584013,-0.0287513
1.01876,-0.137876,0.167551,0.147488,-0.0295267,-0.115966
-0.591927,-0.617883,0.368201,0.231467,-0.0873327,-0.00438368
-0.610782,-0.781651,-0.191833,0.00306076,-0.165716,0.213018
-1.24542,-0.321455,0.269493,-0.0510753,-0.196856,0.20389
-0.439489,0.231333,0.807009,-0.151115,-0.150322,0.140031
-0.484392,0.596452,0.929279,-0.104555,-0.0708769,0.0662934
-0.176254,0.400438,0.6428,-0.0665874,0.0461601,-0.0097611
-0.385959,0.18035,0.242334,-0.136983,0.0860159,-0.0878088
-0.470287,-0.286819,-0.0247672,-0.0737592,0.110077,-0.126377
-0.428207,-0.578441,-0.298103,0.286185,0.0285084,-0.0145093
0.154454,-0.206336,-0.211574,0.152691,-0.00222665,0.0355574
0.146939,-0.211623,-0.319795,0.141719,-0.0696456,0.0760963
0.0499497,-0.135911,-0.566161,-0.145521,-0.160445,0.135783
-0.323357,-0.298772,0.506915,-0.26044,-0.202009,0.0979283
-1.35964,-0.00224725,1.13089,-0.173142,-0.0794674,0.104109
-1.15037,0.156225,1.06137,-0.0211908,0.0803003,0.13436
-0.524965,0.314453,0.699959,0.152623,0.186148,0.00453913
1.09441,0.578496,-0.000402567,0.256859,0.177607,-0.248176
-0.0520918,-0.0378555,-0.745149,-0.128219,-0.0913719,-0.260132
0.933931,-0.0407732,-0.519838,-0.382515,0.00550038,-0.135786
0.789997,-0.139774,-0.085589,-0.0901238,0.0699172,-0.112811
0.153746,-0.487243,-0.634235,0.058068,0.0659976,0.0896468
0.14549,-0.371222,-0.579833,0.488634,0.0594278,0.137632
-0.12396,-0.123962,-0.999642,0.214005,-0.11808,0.199349
-0.722125,0.164929,-0.908193,-0.350902,-0.50236,0.192525
0.370795,-0.15893,1.12281,-0.0337891,-0.236829,0.0670172
-2.50353,-0.245177,1.13529,0.122126,-0.0678028,0.0229094
0.182267,0.203069,1.33017,0.169242,0.185466,0.0519958
2.31326,0.757213,1.10644,0.0752239,0.205958,-0.238431
-0.546952,-0.0515583,0.148661,-0.0807906,0.0146613,-0.048985
-0.580595,-0.168445,-0.552925,-0.388397,0.158323,-0.0703433
0.411453,-0.381001,-0.5736,-0.151719,0.163368,-0.102702
-0.49282,-0.758181,-0.720521,0.504006,0.0699657,0.0219365
-0.50837,-0.248156,-1.248,0.304955,-0.0344042,0.0874345
1.19206,0.0964909,-1.02027,-0.159152,-0.23553,0.0430564
0.223934,-0.0340301,0.159522,-0.173979,-0.411617,0.0937004
-1.85975,-0.335027,1.00563,-0.140275,-0.229574,0.186466
-0.466217,0.621747,1.87812,0.0398088,-0.0084331,0.150516
1.79503,1.12577,1.61307,0.48293,0.297565,-0.132919
0.980592,0.311445,-0.155604,-0.0255824,0.119187,-0.223529
-1.00255,-0.214875,-0.940981,-0.305525,0.146189,-0.0935787
1.2957,-0.205963,-0.767188,-0.277075,0.105673,-0.267488
-1.01178,-0.176798,0.0417972,0.210994,-0.204457,-0.091266
-1.44515,-0.901176,-0.740803,0.683324,0.302752,0.202209
0.866606,-0.22342,-2.02798,-0.000973761,-0.135041,0.252012
1.45287,-0.266584,-1.41848,-0.186884,-0.296162,0.175309
-0.461156,-0.335883,0.347999,-0.0647029,-0.482989,0.256629
-1.63334,0.454405,1.92502,0.113657,-0.179544,0.0792789
2.05004,1.15623,2.45644,0.28162,0.195687,-0.1833
2.26038,0.774368,0.784607,0.0286962,0.160119,-0.1432
-1.51046,-0.0741872,-0.158819,-0.237395,0.100588,-0.0872861
0.270754,0.0161071,-0.393558,-0.300308,0.207339,-0.222379
0.738867,0.0444688,-0.281218,-0.214226,0.069261,-0.0362151
1.5595,-0.186086,-0.143195,0.475048,0.173189,-0.164665
-0.845672,-0.949379,-1.29181,0.310634,-0.10906,0.173244
-1.46909,-0.875378,-1.66085,-0.0367732,-0.141049,0.203599
0.251288,-0.45425,-0.865498,-0.186837,-0.339114,0.212289
-0.864332,-0.174956,0.729793,-0.0778403,-0.421218,0.197179
-1.55658,0.73215,2.00377,0.0912982,-0.157333,0.161133
-1.36204,0.817224,1.79818,0.368232,0.0979319,-0.00901878
2.77974,0.885738,0.8482,-0.00882286,0.386254,-0.120942
0.316086,0.168235,-0.192978,-0.336139,0.0732483,-0.181789
0.947606,0.17847,-0.401046,-0.349147,0.170392,-0.221046
1.55269,-0.122222,-0.118712,0.202521,-0.0108151,-0.0430334
-2.10255,-0.736726,-0.867256,0.515746,-0.00954649,0.278803
-2.07624,0.374745,-1.63042,-0.00613081,-0.0996823,0.250709
-1.30958,-0.144598,-0.127565,-0.0330834,-0.34565,-0.375517
-1.8218,-0.976432,-0.908815,-0.153912,0.0176772,0.147994
-0.620665,-0.615477,-0.607544,-0.218255,0.0250702,0.143418
0.415343,0.0732928,0.355388,0.177331,0.413366,-0.0644429
-0.369627,0.125021,0.13337,0.308034,0.0799655,-0.15891
1.78144,-0.151146,-0.0679129,-0.0780573,-0.0659692,-0.162545
1.03442,-0.163393,0.0167873,-0.190485,-0.1159,0.0223105
1.26765,0.426134,0.095945,-0.388112,-0.0915785,0.0508263
1.75573,-0.117031,-0.197794,-0.245727,0.244978,-0.0293057
-0.9983,-1.59353,-0.283215,0.796509,0.0619189,0.108588
-0.230925,-0.296347,-0.888248,0.236503,0.0277961,0.0477275
-0.373205,-0.12395,-0.327912,-0.448648,-0.270372,0.0122184
0.724506,-0.132468,0.696365,-0.481978,-0.223257,0.0665441
-0.0647568,-1.04931,0.150834,0.719195,0.482397,-0.0224884
-1.48244,-0.14013,-0.453956,-0.177959,-0.038372,0.0363717
0.261498,0.44586,0.761213,0.0239042,0.130549,-0.408445
0.682546,-0.291924,-0.0331161,0.0694426,0.0593185,0.0204193
1.32243,-0.339184,-0.207839,-0.20438,0.154901,0.239904
0.204041,0.236564,-0.653649,-0.217737,-0.505355,-0.108198
0.570353,-0.180959,-0.690835,0.0920652,0.309646,-0.168855
0.36952,0.150275,-0.855122,0.0267854,-0.0543212,0.037401
-2.21218,0.379649,0.409902,-0.0465354,-0.458316,0.102743
-1.7087,-0.330937,1.24504,-0.018347,0.0435908,0.405551
3.55987,0.360301,1.16485,-0.190395,0.131994,0.318063
0.844282,0.227214,0.789454,-0.00636637,-0.285501,-0.231847
-1.51365,-0.283003,0.580154,0.0411572,0.0342284,-0.0392471
0.839285,-0.0175551,0.566927,0.11669,0.167249,-0.0455407
0.498233,1.08348,0.08658,0.115461,0.159523,-0.0710173
1.17725,0.453883,0.0520588,-0.0949735,-0.0389352,-0.206731
0.518997,0.04151,-0.557807,-0.224972,-0.00171447,0.0085609
0.591751,-0.161717,-1.08464,-0.248636,-0.0647554,0.0597292
0.938639,0.0251059,-0.0455129,0.290999,0.00178605,0.0693991
0.069451,0.210921,0.121125,0.385477,0.13895,0.0418488
0.274446,0.337595,-0.467709,-0.00157475,-0.0504117,0.015407
-0.657874,-0.630391,-0.460192,-0.337502,-0.229885,0.112057
-0.970037,-0.842198,0.354509,0.0176705,-0.131503,0.145007
-1.59963,-0.211744,1.04058,0.108952,0.0250959,0.109349
-0.560723,0.526352,0.582653,0.0291129,0.195748,-0.000819325
1.2543,0.567654,0.325852,-0.0309427,0.155106,-0.115732
0.154543,0.00766653,-0.34454,-0.288026,-0.0512471,0.0981001
0.686695,0.478797,-0.194427,-0.274509,-0.0494865,0.00292498
0.605564,0.0582197,0.469982,0.283181,-0.0699806,-0.183705
-0.266168,-0.160349,0.194783,0.458636,0.0154826,0.060068
-0.00273878,0.263167,-0.0125131,0.12949,0.0275911,0.0662198
0.575208,0.0466643,-0.0389402,-0.263705,-0.109482,-0.0104626
-0.649762,-0.434641,-0.0137939,-0.213445,-0.0658619,-0.0302588
-0.877698,-0.654925,0.399278,0.132326,0.0409374,0.113134
-0.656371,-0.234674,0.599454,0.247658,0.103119,0.0754886
1.7166,0.542874,0.171581,-0.00461817,0.095669,-0.114625
0.599795,0.0487649,-0.0119001,0.0128921,-0.0259432,-0.0464505
-0.554879,-0.22273,-0.628597,-0.338647,-0.0553425,0.0310427
0.264356,-0.0583738,-0.498487,-0.260739,-0.0355197,-0.00424308
0.523354,-0.237465,-0.223413,-0.0423467,-0.0494027,0.0712504
-0.783022,-0.0023949,0.0720644,0.174016,-0.0422885,0.102172
-0.317861,0.527274,0.418365,0.245761,-0.0203148,0.0501519
0.18202,0.380021,0.404911,-0.224199,-0.076127,-0.0896283
-0.192683,0.0236761,0.492026,-0.228781,0.0254487,0.0473167
-1.10175,-0.277962,0.486307,-0.0768533,0.00277963,0.109183
-0.819816,0.158267,0.473011,0.0144601,0.143495,0.0667095
0.387979,0.297939,0.261703,0.061031,0.140714,-0.154573
1.3429,0.168569,-0.249857,0.154804,0.0703846,-0.220322
-0.540108,-0.479182,-0.982579,-0.263954,-0.0956872,-0.0354971
0.244786,-0.0903179,-0.381962,-0.243574,-0.127683,0.0211394
0.308533,0.168146,0.219176,-0.16378,-0.0309679,-0.0273591
-0.0942083,-0.110492,0.39477,0.346298,0.0223175,-0.00382072
-0.0409147,-0.143364,-0.252378,0.403368,0.0457496,0.0484015
0.0887488,0.0216087,-0.569081,-0.0469535,-0.0317636,0.0700201
0.579518,-0.0405441,-0.339672,-0.283126,-0.0975292,0.0805259
-1.42093,-0.578928,0.325594,-0.122054,-0.179214,0.0820261
-1.38387,-0.307554,0.47779,-0.0564815,-0.010793,0.0705761
0.556558,0.0687885,0.915908,0.251985,0.190527,-0.0530647
1.35737,0.533612,-0.0144936,0.0965993,0.00108492,-0.121319
-0.397978,0.0836054,-0.150644,-0.149693,-0.0168942,-0.0885386
0.368126,-0.0159184,-0.291768,-0.269385,-0.00283188,-0.0321475
0.468603,-0.0628652,-0.174954,-0.185854,-0.0616545,-0.0679958
-0.175114,-0.178423,-0.135014,-0.161538,-0.0409778,0.0338447
-0.716144,-0.295208,0.219802,0.282186,0.0398778,0.0363426
0.107995,0.072557,-0.0356902,0.32768,0.0293964,0.0687878
0.285757,0.0405276,-0.176051,-0.146883,-0.0447248,-0.0377265
-0.00105961,-0.25735,-0.019467,-0.30778,-0.0995442,0.0528272
-1.06421,-0.582386,0.338206,-0.113321,-0.0368922,0.119381
-0.923141,-0.176937,0.35546,-0.151936,0.0316902,0.116255
0.455343,0.44038,0.838372,0.358744,0.0757885,-0.000811279
0.949349,0.529666,-0.0844347,0.289818,0.0531936,-0.163652
-0.510221,-0.253642,-0.553098,-0.0283293,-0.104747,-0.111349
-0.200399,-0.0388567,-0.523034,-0.21045,-0.0342076,-0.0111682
0.777012,0.157245,-0.113848,-0.228665,-0.0507632,-0.0258405
0.0912185,-0.0786261,0.135587,-0.17125,-0.0788679,0.00628006
-0.509344,-0.00577613,0.0634049,-0.153831,-0.0357329,0.039251
-0.447351,0.0951756,0.537258,0.327698,0.062455,0.0132494
-0.0119951,0.0886168,-0.0413444,0.370213,0.102581,0.0586236
0.268985,0.12372,-0.752364,-0.21939,0.019578,0.0350574
0.0583504,0.112028,-0.255798,-0.213149,-0.0921371,0.0618489
-0.285556,-0.0571507,0.487845,-0.0287455,-0.00567827,0.0519586
0.0509341,0.0512351,0.252777,-0.0149313,0.0568767,0.047558
0.431997,0.166995,0.201303,-0.12553,0.117617,0.0633197
0.770819,0.556278,0.440315,0.0551206,0.10878,0.0124718
0.436545,0.208569,-0.0310275,0.0775414,0.163137,-0.0993515
0.954538,-0.299278,-1.12214,0.262478,-0.0177796,-0.133521
-0.790764,-0.695001,-1.29357,-0.101775,-0.184842,0.00129008
-0.209046,-0.237889,-0.607529,-0.254028,-0.203468,0.0734581
0.415952,0.137213,0.187241,-0.26931,-0.227422,0.0798885
0.0549905,0.0170053,0.902786,-0.0710046,-0.138943,-0.00224012
-1.43037,-0.451408,1.21621,0.763303,0.00792721,-0.033853
-2.22747,-0.337726,0.182382,0.463019,0.102399,0.0201693
-0.0948002,-0.23587,-0.468101,-0.129089,0.00321048,0.0622592
-0.93144,-0.549375,-0.0564756,-0.15895,-0.228063,0.0886376
-2.76229,-0.967713,1.02817,0.0361416,-0.15407,0.162911
-2.14771,-0.747881,1.28225,0.107195,-0.0160245,0.168537
-1.53862,-0.328944,1.31871,0.156906,0.0453362,0.194152
-2.51885,-0.267479,1.05058,-0.0733697,0.161508,0.191806
-1.10579,0.283999,0.818705,0.0192636,0.191653,0.0273515
-1.17417,0.279812,0.739773,-0.158248,0.0762959,-0.195394
-0.989838,0.289246,0.794321,-0.0878052,0.150868,-0.249053
-0.117343,-0.0848557,0.122524,-0.0891517,0.174447,-0.315767
-1.56844,-0.767002,-0.545307,0.0134472,0.0202687,-0.0894076
-2.03496,-0.637761,-0.929755,-0.103365,-0.00119531,0.0187679
0.437342,-0.169244,-0.277968,0.100684,-0.0361871,-0.0845771
-0.73472,-0.68581,0.0690119,0.257542,-0.120977,0.176637
-3.89301,-1.11981,-0.341089,0.0342679,-0.182952,0.188784
-2.54071,-1.59151,0.476668,0.0297635,-0.108937,0.284544
-3.0161,-1.6425,1.47674,0.156644,-0.226966,0.363978
-2.45617,-0.894747,2.04661,0.147031,0.0499812,0.34938
-0.848829,0.225976,2.20826,0.0359129,0.291003,0.0755097
0.908204,0.57087,1.26203,-0.164006,0.498959,-0.332915
0.364696,0.616311,-0.0247483,-0.221452,0.392497,-0.353087
4.05375,0.312411,-0.250331,-0.0227408,0.151682,-0.213016
-1.36883,-0.526552,-0.630004,0.115597,0.20248,0.0430182
1.68222,0.138755,-1.15715,-0.0933384,0.285978,0.229588
1.75343,0.16425,-1.14352,-0.0169153,0.279778,0.160805
2.10044,-0.0220554,-2.04737,0.119124,0.283408,0.144322
1.6026,-0.0429951,-2.00589,-0.0153204,-0.0435793,0.136234
2.48271,0.200974,-1.18884,-0.0116292,-0.281926,0.221135
1.20627,0.171649,0.613741,0.213021,-0.37379,0.0502489
-0.696319,0.212476,0.446526,0.115011,-0.327437,0.0664485
-0.338549,0.452758,0.542424,0.0649652,-0.351535,-0.0423549
-1.39843,0.177753,0.892592,-0.00863838,-0.0717733,-0.148179
-1.70872,-0.552149,0.54289,0.136615,0.0545796,-0.158155
-0.799662,-0.545434,0.785522,0.288262,0.044174,0.122355
-1.53472,-0.502354,0.962393,0.0418683,-0.0760679,0.0786792
-1.46576,-0.35009,0.557212,-0.168782,0.0364206,0.103484
-1.57672,-0.2638,0.611548,-0.11977,0.00354627,0.0559098
-0.590977,0.0313658,0.731638,-0.145618,0.0778451,-0.0143905
-0.495287,0.690095,1.13466,0.364546,0.090021,0.0220784
-0.566054,0.739029,1.48608,0.486832,0.346324,-0.0421925
-0.965837,-0.0320559,0.0807446,-0.231181,0.0232074,-0.136605
-1.6617,-0.648858,-0.222049,-0.130542,0.00584367,-0.0867823
-0.866099,-0.258751,-0.335478,-0.335504,-0.00207466,-0.0761988
0.875304,-0.130291,0.13168,0.0504859,0.194206,-0.0782204
-0.0613176,0.171755,-0.296806,0.0439057,0.00448298,-0.0531354
1.24675,0.674342,-0.514826,-0.0391676,0.259404,0.0437843
1.75185,0.088441,-0.2612,0.100844,0.0745262,0.0814162
0.629479,-0.154305,-0.970702,-0.148485,-0.0155398,0.104567
1.11682,-0.0226827,-0.949259,0.0271434,-0.102723,0.153982
0.384861,-0.150091,-0.121194,0.316655,-0.188701,0.134463
-0.68905,-0.301653,0.421427,0.109851,-0.0339676,0.108955
-0.048508,-0.474382,-0.321723,0.0474658,-0.0938482,0.0257001
-0.879389,-0.711132,-0.365162,-0.208817,-0.226728,-0.0467129
-0.668345,-0.540114,0.429388,-0.338396,-0.139248,-0.100694
-0.448308,0.0653567,0.631512,-0.137318,0.0755349,-0.0187726
0.332186,0.490593,0.51144,0.135274,0.188849,0.0633187
-0.61846,0.831984,0.282981,0.181381,0.227526,-0.086759
1.40247,0.497464,-0.291255,0.0325248,0.193944,0.102862
1.29151,0.181542,-0.818984,-0.148305,-0.0566863,0.0541836
1.22577,0.473236,-0.764344,-0.262984,-0.178547,0.0593809
1.56519,0.518456,0.381901,-0.02153,-0.10993,0.00658697
1.3713,0.335373,0.948446,0.357948,-0.0740193,-0.0310258
-1.38797,-0.641758,0.384936,0.250533,-0.0346153,-0.0637029
-1.39892,-0.668208,-0.22012,-0.0135765,-0.0613759,0.146404
-1.56877,-0.557506,0.292867,-0.322787,-0.103754,-0.0482274
-1.39727,-0.0169611,0.593006,-0.34414,-0.00522673,-0.000346184
-1.78223,-0.206028,0.0930847,-0.00624853,0.18722,0.0815489
-0.396529,0.171974,-0.194605,0.151025,0.110724,0.0403233
0.381926,0.456685,-0.209618,0.0217187,0.184371,-0.000285864
2.85871,0.55062,-0.0542399,0.0818623,-0.0217125,0.0979041
0.463614,0.126779,-0.751221,-0.0892721,-0.0786292,0.0600541
1.1983,0.368922,-0.713162,-0.230299,-0.122289,0.0364605
1.01807,0.60938,0.264274,-0.0719349,-0.177242,0.0148975
0.8341,1.00848,1.06697,0.370589,-0.0837873,0.0312196
-0.593857,0.00141863,1.32054,0.275723,0.0287701,-0.0435174
-1.15618,-0.440701,0.225689,-0.0166243,0.0257185,-0.0212812
-2.63179,-0.881261,-0.18997,-0.151774,-0.168226,-0.0935795
-1.5621,-0.581861,-0.239184,-0.363193,0.0553724,0.0405134
0.361135,-0.402429,0.207506,-0.0729212,-0.0160192,0.0138091
-0.648168,0.379643,0.168532,0.0587345,0.0674817,-0.00304806
-0.570406,0.392383,0.0730357,0.284101,0.3685,-0.13059
3.03292,-0.0423966,-0.110565,0.191775,0.00852832,-0.0211611
-0.30073,-0.178047,-1.15359,-0.112362,0.0110957,0.120413
1.0083,0.0924704,-1.33819,-0.253166,-0.0654454,0.0801476
1.19532,0.341262,-0.735644,-0.187709,-0.247737,0.0773097
0.989309,0.496443,0.751235,0.104645,-0.188382,0.00103426
0.081003,0.394708,1.58477,0.66703,-0.0173811,0.0352293
0.107546,-0.268183,0.453977,-0.0279408,0.1136,-0.0730571
-1.80769,-0.89983,-0.714904,-0.0841212,-0.0541253,0.0317385
-1.75108,-0.961682,-0.434745,-0.35783,-0.116333,0.0304747
-0.868021,-0.116313,0.455621,-0.380958,-0.129699,0.0766329
-0.932316,-0.100253,0.294274,-0.0357218,0.162454,0.0391796
0.467424,0.351209,-0.102548,0.096549,0.123633,-0.0224668
0.0751869,0.339691,0.283832,0.209205,0.198658,-0.0907653
1.33354,0.266461,0.0144348,0.139988,0.0813194,0.0387317
0.621443,0.121237,-0.331842,0.0239931,0.0348456,0.0386398
1.24004,0.341236,-0.772615,-0.313632,-0.0559974,0.0461668
1.32726,0.60822,-0.245094,0.0230914,-0.16829,0.0690144
0.150999,0.224599,0.59425,0.377416,-0.169322,0.100387
-0.590505,-0.219911,1.021,0.0891775,0.0210442,-0.0543448
-0.530541,-0.537001,0.383847,-0.00433064,-0.0684359,-0.0470588
-1.93385,-0.788169,0.0683914,-0.249625,-0.0121903,-0.118357
-1.90288,-0.625278,-0.117719,-0.321076,0.109553,0.0662128
-1.48345,-0.366788,-0.646443,-0.0133193,0.177071,0.0383596
1.18265,0.25713,-0.549401,0.0137109,0.145432,0.0722902
2.78372,0.831833,-0.562877,0.362443,0.301368,-0.0109055
3.49929,-0.399817,-2.38234,0.30631,0.316436,-0.169913
1.87087,-1.35099,-3.64724,0.202286,0.114104,0.306083
-0.380179,-0.124435,-2.45547,-0.275681,-0.518553,0.421462
1.49588,0.17612,-1.02438,-0.0240146,-0.246012,0.163288
0.494204,-0.591762,-0.71161,0.295956,0.137795,-0.37069
0.462471,-0.945264,-0.227656,0.130457,0.306713,-0.311598
0.777477,-1.48394,-0.931301,0.138728,0.0728487,-0.0881888
0.564898,-2.0257,-0.508094,0.167579,-0.0884719,0.0988704
1.43952,-2.18531,0.872482,0.189726,-0.533957,0.231628
0.983763,-0.731417,2.84992,0.169226,-0.263245,0.53176
0.268483,0.457519,1.02256,-0.235037,-0.328691,0.477446
0.950734,-0.617506,-1.24498,-0.650123,0.186026,-0.212242
-0.652827,-0.892241,-0.400953,-0.103329,-0.160861,0.0901346
0.0617893,1.00689,1.19099,0.231956,0.249828,0.0843585
-0.379002,0.538692,1.81819,-0.0594342,0.0290514,0.126389
-0.350149,0.872272,0.162855,0.207735,-0.0118181,0.00546718
-0.362696,0.396517,-0.0391823,-0.160846,-0.183608,-0.0734416
0.20969,0.754734,0.30744,-0.108617,-0.130989,0.254718
-0.00802498,1.26241,1.22422,-0.141117,-0.336645,0.304106
0.625731,2.80187,2.62074,0.100671,-0.0911692,0.14602
-0.217408,4.44694,3.15455,0.515441,-0.13387,-0.000582337
-2.41608,2.3856,3.27408,0.593396,0.123043,-0.308025
1.40537,0.001328,0.100089,0.175296,0.371774,-0.126034
-1.81941,-0.868866,-1.04485,-0.243494,-0.0657866,-0.109336
-0.864427,-0.708958,-0.555573,-0.313253,0.0322447,0.0721176
-0.267988,-0.174109,-0.0439753,-0.110152,-0.00448605,0.0713888
-0.166173,0.623073,0.069889,0.165693,0.0411339,0.00856042
0.929222,0.299698,0.207892,0.0371514,0.0423468,-0.0109507
0.241991,0.102355,-0.340409,0.0375881,0.0281454,0.0527831
0.30499,0.061943,-0.673721,-0.160786,0.061006,0.142962
1.1396,0.17631,-0.768245,-0.192882,-0.101901,0.0679247
0.517314,0.212822,-0.206773,-0.0768206,-0.159527,0.0479071
0.387035,0.172296,0.467415,0.0737349,-0.104438,0.0306109
-0.368168,0.365436,0.798087,0.414514,-0.0617679,0.0974392
-1.10632,-0.55363,0.433006,-0.150417,0.0973727,-0.0563433
-0.931666,-0.551532,0.0688034,-0.103769,-0.0492649,-0.0250746
-2.59082,-0.297024,0.28317,-0.190049,0.0451169,-0.0154381
-1.25357,-0.114872,0.0968455,-0.35232,0.0688399,0.0100225
-0.7074,-0.313217,-0.0980693,-0.194172,0.0912671,-0.0340575
-0.493174,0.0123364,-0.0370737,0.24203,0.245959,-0.0778497
1.94216,0.00522332,-0.0448101,0.094327,0.252542,-0.0132967
2.48734,0.0922769,-0.690782,0.127804,-0.0625392,0.105901
0.615522,0.0531439,-0.482827,-0.145522,-0.13142,0.0750273
1.25817,0.522072,-0.351799,-0.384114,-0.0704543,0.0892851
0.994685,0.557243,0.230862,-0.0212855,-0.133589,0.0752736
0.426437,0.283943,0.825369,0.523968,-0.0438922,0.0224736
-0.967267,-0.73883,-0.024571,0.0361885,0.0237187,-0.127021
-1.26688,-0.826803,-0.629619,-0.0120247,-0.12575,0.0566856
-0.992743,-0.805918,0.143306,-0.203478,-0.130646,-0.0442443
-1.597,-0.315932,0.591034,-0.28982,-0.0369503,0.0461971
-0.267363,-0.00928275,0.604725,-0.142498,0.131873,0.0279254
-0.432859,0.643348,0.649321,0.0568025,0.192339,-0.0265216
0.231003,0.340703,0.0671786,0.209899,0.394787,-0.101774
2.45636,0.221062,-0.532791,0.0140955,-0.0418483,-0.000368714
0.831965,-0.168366,-0.684655,0.0338305,0.101743,0.0226566
0.437591,-0.160405,-1.54463,-0.190811,-0.119219,0.15365
0.609575,0.286399,-0.971362,-0.207072,-0.279819,0.106935
0.746075,0.618959,1.0428,0.202166,-0.192559,-0.00813472
-0.237039,0.252248,1.81687,0.758143,-0.0310712,0.00662816
-1.08679,-0.150164,0.284012,-0.138241,-0.039682,0.0338201
-1.48625,-0.572433,0.158909,-0.0641735,-0.029405,0.0059191
-1.53644,-0.28398,0.380768,-0.345945,0.0455893,0.0198626
-1.33986,-0.116951,0.179395,-0.243525,0.0911647,-0.012299
-1.26285,0.113031,-0.279301,-0.0202516,0.168865,-0.0390253
0.00676039,0.729445,-0.139189,0.250269,0.262066,-0.0780509
1.68407,0.449351,-0.2259,0.00950617,-0.0496059,0.0533411
0.971476,0.0113574,-0.393079,0.0892498,-0.0410188,0.155475
0.57171,0.382128,-0.565009,-0.302034,-0.079125,0.108495
1.54275,0.661275,-0.17524,-0.346214,-0.134411,0.0354508
0.830384,0.720161,0.519014,0.10517,-0.126903,0.0257688
0.14252,0.467234,0.864805,0.612166,-0.0516543,0.0976458
-1.27323,-0.612053,0.474015,-0.0959832,-0.0355889,-0.0866117
-1.1848,-0.671606,-0.0142455,-0.0622475,-0.0740717,0.00342762
-2.17513,-0.637896,0.0665873,-0.190106,-0.0868599,-0.0604887
-0.912608,-0.278035,0.288246,-0.332362,0.0739026,0.0482433
-0.810447,0.114703,0.201219,-0.212667,0.146499,-0.0760954
-1.12586,0.113956,-0.142844,0.0630456,0.258188,-0.0440356
0.722946,0.447906,-0.142567,0.519287,0.317755,-0.0328815
2.38285,0.349929,-0.54766,0.0312324,-0.0389265,0.0370907
0.463244,-0.0732744,-1.00693,-0.0181677,-0.135986,0.171884
0.0405587,0.270793,-0.742235,-0.221031,-0.0937538,0.109673
1.18674,0.575302,-0.143861,-0.211392,-0.188096,0.0683267
0.391212,0.36284,0.463,0.0904257,-0.0994014,-0.0964
0.618739,0.195452,0.851201,0.39705,-0.0249384,-0.0465822
-1.04342,-0.734676,0.639491,0.0387013,0.130992,-0.125004
-0.917111,-0.787704,-0.473639,0.0727695,-0.039808,0.00802553
-1.22285,-0.636346,-0.411945,-0.269082,-0.091948,0.0689899
-1.99204,-0.33783,0.00519902,-0.304219,-0.03433,0.0178169
-2.13813,-0.189737,-0.102606,-0.122103,0.0929105,0.0598708
0.124319,0.0927661,0.0555108,-0.0935544,0.113503,-0.0524895
-0.150166,0.856023,0.688718,0.546929,0.334692,-0.0698054
2.68602,0.308111,-0.269021,0.0185994,-0.00997007,0.114167
2.45783,0.337079,-0.477205,0.000332773,-0.0421036,0.0951791
1.78684,0.528154,-0.650961,-0.14274,-0.0925444,0.0746008
2.10948,0.624794,-0.697726,-0.217613,-0.191814,0.0665205
0.80678,0.518037,0.106722,-0.123594,-0.239273,-0.0197319
0.2987,0.514901,1.33336,0.267519,-0.0780744,-0.0690886
-0.876472,-0.298509,1.17845,0.419686,0.144943,-0.149026
-0.667809,-0.839029,-0.317659,0.138369,0.0235997,-0.0754226
-1.64728,-1.41405,-0.803574,-0.0404527,-0.0650131,0.0541266
-2.27856,-1.21891,-0.328023,-0.30709,-0.146081,0.0904341
-1.06857,-0.416296,0.325178,-0.355401,-0.141476,0.0840523
-0.495507,0.248418,0.887773,-0.0164891,0.130925,-0.0137628
0.824556,0.824372,0.963196,0.13324,0.139531,0.066083
0.455785,0.552187,0.784763,0.133989,0.232626,-0.229084
1.46731,0.0982717,-0.352209,0.0422273,0.188002,-0.0421975
0.668102,-0.160745,-0.837477,-0.0304605,0.0102972,0.0155184
0.35333,-0.0380707,-0.943951,-0.286427,0.0232337,0.124155
2.08353,0.0254079,-0.226299,-0.146484,-0.224101,0.0367795
0.102196,0.390784,0.280899,-0.0957862,-0.0414532,0.0641011
1.14514,0.429281,0.746659,0.123493,0.00327945,0.0218688
0.0338543,0.250258,0.522239,0.144204,0.0993247,-0.0562358
0.321616,-0.187272,-0.171106,-0.14149,0.174625,-0.179457
-0.379636,-0.716699,-0.794188,0.0726306,-0.058479,0.0280937
-0.495566,-0.563276,-0.994803,-0.117816,-0.0266517,0.0479367
-0.142569,0.117485,-0.0706608,-0.192834,-0.269663,0.0465648
-0.39923,0.303739,0.775327,-0.272662,-0.0986284,-0.13427
0.150182,0.579973,1.25882,0.099841,0.190068,-0.043588
2.39471,0.434783,0.586276,0.0983123,0.289286,-0.137172
1.84001,-0.16699,-0.601484,-0.127483,0.206303,-0.0648555
0.97879,-0.84551,-0.492788,0.146624,0.119985,0.0186894
-1.59264,-0.777273,-1.85182,0.049783,0.217985,0.178251
0.912539,-0.256375,-2.17835,0.0253775,-0.00793085,0.281591
1.1966,-0.0844369,-1.02428,-0.104378,-0.295344,0.196687
0.58617,0.661802,0.507744,0.158133,-0.370397,0.211781
0.584359,0.964933,1.47964,0.122373,-0.281164,-0.0633579
-0.370425,0.330057,1.84528,0.117815,-0.123445,-0.0212451
-1.85677,-0.0368806,0.794492,0.0531885,0.0663448,0.0337784
-1.3225,-0.163845,0.385226,-0.0884935,0.163436,0.10218
-1.24933,0.111819,0.290485,-0.240983,0.0876444,-0.000243664
0.0465931,0.592988,0.615204,-0.105575,0.113708,-0.165198
-0.387282,0.394292,0.450945,0.176223,0.16324,-0.223219
-0.0581855,0.100446,-0.279546,0.183635,0.223974,-0.249588
1.63247,0.0238299,-1.04193,-0.00646913,0.19204,-0.0345553
2.11916,-0.438633,-0.590553,0.078954,-0.0644438,-0.0261789
-0.796656,-0.73341,-0.829943,-0.103264,0.0105575,0.134761
0.266561,-0.545794,-0.766683,-0.131372,-0.0194881,0.226698
-0.264533,-0.0952888,-0.175688,0.167608,-0.131455,0.198034
-0.401041,0.272929,0.537635,0.242898,-0.0980098,0.0566909
0.164679,0.160727,0.636248,0.0567306,-0.0543457,-0.124574
-0.474932,-0.147363,0.0950115,0.0670127,-0.0878871,0.0203415
-1.71062,-0.284795,-0.0259136,-0.211955,-0.0753812,0.0599071
-1.2611,0.179907,0.478733,-0.138396,-0.016085,-0.0143902
0.380248,0.286103,0.898743,-0.169561,0.094746,-0.17466
0.976129,0.35169,0.784438,0.141761,0.11448,-0.13956
0.229122,-0.0860295,-0.332851,0.220913,0.265515,-0.151454
1.59652,-0.322091,-1.08697,0.102398,0.195074,0.0420345
1.46033,-0.54239,-0.864515,0.0990967,0.0525842,0.0933512
0.284084,-0.636118,-1.40025,-0.0688866,-0.0744376,0.190949
0.26101,-0.530786,-1.16828,-0.0274247,-0.213415,0.228331
0.00545754,0.0258067,0.0531774,-0.0691673,-0.277032,0.175959
0.229251,0.679928,1.44378,0.138931,-0.226138,0.0456538
-0.689169,0.612341,1.99986,0.288735,-0.0272195,-0.0285735
-0.889744,0.197637,0.84804,0.0192413,0.157702,0.0352172
-0.952189,0.086164,-0.0990622,0.0296758,0.177891,0.0886907
-0.73993,0.463957,-0.372213,-0.252982,0.126338,0.0812024
0.982315,0.789378,0.0463614,-0.140028,0.0849969,-0.233896
0.320213,0.0606536,0.24944,-0.123599,-0.0248273,-0.277624
1.35,-0.263733,0.353503,0.058428,0.0651261,-0.17927
-0.176735,-0.142237,0.0159435,0.305528,0.209619,-0.11791
1.67287,-0.120893,-1.37541,0.0266337,0.306207,0.151768
2.25707,-0.574704,-1.66706,0.176466,0.0902042,0.109126
-0.268385,-0.618465,-2.24062,-0.0449815,0.0534155,0.23777
0.442334,-0.229514,-1.78539,-0.19041,-0.117833,0.275751
1.37599,0.534675,0.0660615,-0.0264747,-0.29366,0.210768
1.35763,1.26453,1.54486,0.459942,-0.333041,-0.15945
0.830112,0.492107,1.60176,0.183407,-0.0212466,0.0305913
-0.929183,-0.00773781,0.709677,0.11192,-0.070919,0.111627
-3.002,-0.316905,0.20575,-0.162641,0.0811062,0.151131
-0.506501,0.287878,0.693832,-0.275311,0.153999,0.117075
1.14337,0.859252,1.08136,-0.157585,0.144284,-0.238306
0.206335,0.414121,0.350598,0.0955279,0.190274,-0.239338
-0.439046,-0.0556173,-0.761236,0.248502,0.263915,-0.130019
1.30514,-0.0163247,-1.27581,0.00617689,0.209244,0.0594964
1.43756,-0.319891,-0.879977,0.0821472,0.0426365,0.119129
1.36094,-0.134607,-0.913147,-0.101491,0.033747,0.198304
1.15684,-0.199462,-0.623088,-0.0899127,-0.0720711,0.258433
0.101878,0.0363885,0.0349907,0.132281,-0.0434459,0.238489
-0.444284,0.341105,0.529603,0.202062,-0.037861,0.09799
0.244106,0.438625,0.148632,-0.123618,0.03733,-0.0189498
0.489027,0.169221,-0.186673,0.0517986,-0.0136628,0.0318956
-0.344902,0.221963,-0.0698294,-0.147706,0.0409107,0.0191621
1.77218,0.484308,0.238701,-0.13042,0.15284,0.00598955
2.08533,0.371261,0.188829,-0.109525,0.0917966,-0.00150359
0.834945,0.156163,-0.0703156,0.198881,0.161134,-0.028008
1.15025,-0.0142447,-0.630849,0.118091,0.219276,-0.0564896
1.7862,-0.271219,-0.719746,0.111432,0.0775218,0.0890369
0.822743,-0.296084,-0.618212,-0.0765642,0.0804359,0.151106
1.91401,-0.0233412,-0.556873,-0.116818,0.0769372,0.215605
0.528132,-0.250157,-0.369974,-0.0910223,-0.032897,0.231828
-0.338877,-0.0494759,-0.10269,0.154619,-0.00493866,0.233371
-0.775436,0.0231613,0.170682,0.0960467,-0.0451933,0.0603437
0.160641,0.257712,0.185334,0.0645578,-0.0285807,-0.0325446
-0.172789,-0.13793,-0.155321,0.0421495,-0.109745,-0.0386583
-1.19292,-0.209572,-0.110056,-0.184278,-0.158179,0.0871145
-0.707424,0.149709,0.4797,-0.174671,0.0338441,0.00556862
1.29208,0.578152,0.951622,-0.172038,0.0542232,-0.0833611
0.0603268,0.581218,0.854154,0.134879,0.0884115,-0.0980121
0.195887,0.234338,-0.0808507,0.117987,0.30542,-0.168023
1.706,-0.148729,-0.81822,0.162272,0.197819,-0.00932825
0.354599,-0.705384,-1.31159,0.0165871,0.0478651,0.0727023
0.425081,-0.344538,-1.46854,-0.120061,-0.0459851,0.1821
0.679923,-0.348094,-0.812516,-0.0505602,-0.213458,0.209746
-0.282527,0.0483412,0.186948,0.104972,-0.241107,0.186529
-0.0753188,0.392839,1.12477,0.185975,-0.150584,0.0452816
0.0641546,0.388478,1.12742,-0.014522,-0.0374006,-0.0379136
-0.89862,-0.207791,0.391157,0.0914474,-0.0150493,0.0312968
-1.38217,-0.246718,-0.00188183,-0.178344,0.0286669,0.0586891
-0.948064,0.00195757,0.342206,-0.21998,-0.00492814,-0.000310898
-0.114991,0.426003,0.571788,-0.182604,0.101419,-0.04439
0.333065,0.591721,0.623818,0.163268,0.0957286,-0.156039
0.790672,-0.0301114,0.0450097,0.177341,0.27059,-0.263054
0.960505,-0.547365,-0.738461,0.0820891,0.100952,-0.0209944
-0.272347,-0.781633,-1.01773,-0.0354437,0.074671,0.110961
0.779441,-0.28102,-1.13267,-0.124301,0.00870788,0.216535
1.08604,-0.149366,-0.682831,-0.0870693,-0.133736,0.234925
0.687868,0.176442,0.135715,0.111324,-0.107459,0.172587
0.14193,0.35132,0.518031,0.119326,-0.119632,-0.0123744
0.775271,0.450905,0.541165,-0.0500826,0.0494958,-0.0574105
0.584464,0.0700866,0.106821,-0.0213586,-0.0528152,0.0067333
-0.780439,-0.0832167,-0.0648218,-0.198986,0.0930603,0.037805
0.282702,0.475926,-0.133635,-0.168117,0.139352,0.13183
2.54997,0.646698,-0.115609,-0.112511,-0.0543947,-0.253323
0.550091,-0.12884,-0.309886,0.0317445,0.153581,-0.0795989
0.842564,-0.061981,-0.364459,0.217144,0.1314,0.0527827
1.50016,-0.066582,-0.893427,0.0577539,0.100422,0.176916
0.655978,-0.243807,-0.600881,0.0524303,0.0690567,0.168934
0.504267,-0.0743705,-0.897215,-0.0598774,0.0277782,0.229012
-0.0398352,-0.0356233,-0.988001,-0.091249,-0.132196,0.20279
0.179205,0.449374,-0.0576861,-0.125247,-0.191173,0.0670344
0.159161,0.542754,1.12727,0.152215,-0.196484,-0.0289931
-1.70281,0.228909,1.66112,0.304981,-0.00723171,-0.0455309
-1.41038,-0.224554,0.832942,0.00641108,0.211763,0.0205001
-0.596704,-0.349452,-0.133146,-0.0312018,0.198504,0.107043
-0.509067,-0.140742,-0.675212,-0.175027,0.0735624,0.0292435
0.452224,0.130928,-0.179553,-0.221419,0.00859898,-0.0519292
0.67901,0.461653,0.438353,-0.143996,-0.00132014,-0.0660216
0.0780979,0.318343,0.627627,0.264043,0.148146,-0.117482
0.512766,0.0351278,-0.37579,0.205646,0.248966,-0.0973261
1.21438,-0.336677,-1.14908,0.0926487,0.125252,0.0546798
0.464449,-0.371299,-0.99052,-0.0130116,0.0383219,0.120142
1.22264,0.0954359,-0.947053,-0.110498,-0.00147116,0.220954
1.50494,0.210143,-0.756591,-0.0920168,-0.120026,0.207292
0.647536,0.262825,-0.359491,0.0631616,-0.19819,0.12736
-0.252775,0.417635,0.408563,0.192036,-0.208528,-0.0173301
-0.1332,0.263001,1.1917,0.174975,-0.0341561,-0.0719361
-0.860377,-0.217465,0.664638,0.0568845,-0.0238224,0.0425012
-2.28333,-0.478118,0.0566709,-0.110036,0.0579475,0.142209
-1.4817,0.00883588,-0.0225297,-0.166097,0.046813,0.11527
-0.940766,-0.0640486,0.374481,-0.18228,-0.11629,-0.31143
-0.0486222,-0.00838934,0.781775,0.0622671,0.156287,-0.0613707
0.205134,0.152257,0.387252,0.121284,0.131001,-0.0632882
0.659041,-0.0724752,-0.393285,-0.0769249,0.170117,-0.0208659
1.22349,-0.0771028,-0.596755,0.0319436,0.12599,0.0675305
1.22601,-0.194131,-0.826808,-0.0232611,0.0424681,0.07842
0.794921,-0.397022,-1.25764,-0.0170918,-0.084374,0.134334
-0.329383,-0.384554,-0.979155,-0.0651903,-0.238278,0.164542
0.405776,0.080831,0.234343,-0.0163713,-0.21935,0.0541549
-0.22202,0.362033,1.2998,0.190959,-0.238012,-0.0106772
-1.35255,-0.044846,1.38698,0.125642,-0.0169693,-0.0532045
-1.16405,-0.227799,0.336784,0.044778,0.0379499,0.0799011
-1.62936,-0.439163,-0.129754,-0.101679,0.00213641,0.084458
-0.689931,0.0124625,0.164175,-0.144677,-0.0565159,0.0675591
-0.329603,0.34632,0.627264,-0.189695,-0.0504868,-0.11127
-0.244088,0.211044,0.735441,0.0471748,-0.0164178,-0.164981
-1.22238,-0.239365,-0.0825255,0.222917,0.0208195,-0.189181
-0.342282,-0.451717,-0.565945,-0.0188085,0.00554168,-0.0240117
-0.471236,-0.591153,-0.216067,0.0585078,-0.11628,0.0714918
-0.601358,-0.346177,-0.41265,-0.117555,-0.169268,0.0666293
-0.95645,-0.517387,-0.0471056,-0.0728101,-0.277335,0.0993166
-1.66718,-0.572386,0.605526,0.017511,-0.281362,0.086051
-1.69529,-0.281993,1.50754,0.293863,-0.180476,0.100089
-1.91186,-0.219091,1.73737,0.294397,-0.0867842,0.159331
-3.35356,-0.454164,1.05743,0.0892107,-0.0150313,0.165906
-2.19363,-0.142043,0.959971,-0.215836,0.0789199,0.146026
-1.1912,0.263801,1.12832,-0.192158,0.0843098,-0.0737088
-1.59263,0.389836,0.621486,0.0793817,0.104748,-0.13839
-1.82926,-0.467675,-0.452137,0.0719253,0.0982648,-0.294253
-1.21846,-0.94172,-0.803437,0.122755,-0.061103,-0.0353594
-1.17336,-1.21948,-1.16027,0.115045,-0.186469,-0.0186393
-1.55252,-1.27038,-0.882925,-0.0753794,-0.381805,0.150005
-1.74498,-0.675553,0.506245,-0.0373154,-0.435568,0.121048
-1.24697,-0.17277,1.85086,0.234335,-0.10002,-0.0354056
-0.915007,-0.297517,1.65772,0.173152,-0.14021,-0.060775
-2.84781,-0.879367,1.44153,0.159539,-0.0163849,0.139976
-3.62191,-1.099,0.929745,0.0271157,0.0485911,0.242651
-2.21254,-0.57947,0.742832,-0.15849,-0.00414121,0.249759
-1.28804,0.0542358,0.89509,-0.191892,-0.026071,0.0977654
-1.1025,1.07903,1.46044,-0.084563,0.0639682,-0.0584331
-1.39516,0.489605,1.16968,0.398869,0.315478,-0.36076
0.757558,-0.524818,-0.877823,0.266635,0.105754,-0.167375
-2.20731,-1.64549,-1.51741,0.118868,-0.0838539,-0.0371901
-1.70926,-1.09118,-1.83781,-0.116212,-0.14908,0.119022
0.138482,-0.709652,-0.601987,-0.107503,-0.357017,0.172966
-0.239549,-0.131696,0.644817,0.0102603,-0.270801,0.0022521
-0.244635,0.241671,1.71619,0.228866,-0.112348,0.018505
-0.563483,0.0790401,1.71702,0.148988,0.0347872,-0.00948042
-1.10875,-0.126833,0.829852,0.162797,0.0731519,0.00870413
-0.79886,-0.0790168,0.248697,-0.221135,0.148699,0.0718805
0.00975737,0.0758288,0.153851,-0.198406,0.0969644,-0.081835
0.506238,0.233009,0.126125,-0.0594576,0.0952093,-0.13689
-0.0238317,0.0738207,-0.253411,0.222202,0.0697457,-0.093663
0.247681,-0.238109,-0.852835,0.0102376,0.0889593,0.028204
0.821773,-0.152365,-0.64298,0.130923,-0.0344558,0.203393
0.136467,-0.0485735,-0.783618,-0.014056,-0.10382,0.273449
0.335934,0.0118573,-0.422734,0.0318754,-0.135565,0.294104
-0.291971,0.205912,0.143871,-0.0963278,-0.172991,0.201996
0.484229,0.586296,0.645897,-0.0350118,-0.077347,0.032757
0.365198,0.58742,0.756974,-0.00458622,-0.0253857,-0.00381345
0.376718,0.242636,0.308809,0.0166776,0.101343,-0.072224
-0.0759433,-0.202885,-0.310473,0.0239537,0.0359844,-0.0724821
