rotation_x,rotation_y,rotation_z,acceleration_x,acceleration_y,acceleration_z
0.356257,0.143636,0.0352558,-0.0742667,-0.114073,0.144626
0.118294,-0.0866731,0.174758,-0.0659373,0.163997,-0.0187665
0.266795,0.0369112,0.0516404,-4.09782e-05,0.0270703,0.0155423
0.191056,0.140854,0.205608,0.0675623,-0.0314783,0.00317687
-0.0612981,0.0570309,0.419966,0.202693,-0.0120354,0.064206
-1.47965,-0.117547,0.76517,0.373871,-0.00176847,0.245961
-4.36082,0.0533715,0.743658,0.319419,-0.0794621,0.598277
-1.50845,0.890116,1.55986,0.0175177,-0.075074,0.0623313
-2.93166,0.408084,2.01068,-0.0902913,0.273176,-0.0506016
-2.84722,0.0725562,1.37317,-0.068914,0.532587,-0.0517422
-1.68206,0.889064,2.1052,0.0943,0.423277,0.120741
-1.49539,1.03468,1.7716,-0.185329,0.0579501,0.109727
-3.30011,-1.56887,0.799817,0.650548,1.54073,-2.46768
-0.583428,0.426068,1.09408,0.365084,0.0327365,-0.0550519
-3.4822,0.592876,1.15801,0.180739,0.138537,-0.0233479
1.55792,1.11734,0.266364,0.106057,0.0238285,-0.212526
-1.70694,-0.787358,-1.19087,-0.084231,-0.317673,-0.0586492
-2.10411,-1.56758,-1.6104,0.0639596,0.0513093,0.00660813
-1.35356,-2.12923,-2.37965,-0.264839,0.123587,-0.040255
0.964181,-0.777393,-2.27823,-0.355754,0.166844,0.0264362
1.0309,-0.110618,-1.51623,-0.162392,-0.219455,0.142735
-1.60138,-0.167462,-0.342943,0.107584,-0.382774,-0.0576714
-2.38066,-0.516059,0.334864,0.0483105,-0.128471,-0.235541
-1.11128,-0.0158249,1.06292,-0.197024,-0.149796,0.0952196
-1.96421,-0.61971,0.495227,-0.0191298,0.024237,0.0842563
-1.01774,-0.485943,-0.179494,0.0111294,-0.306522,0.116058
0.920904,-0.748315,0.281423,-0.130343,-0.32472,-0.049001
2.50711,0.336138,0.484403,0.0868815,0.0910878,0.20395
0.585316,0.146702,1.27763,-0.253793,0.0321033,0.0446342
1.12861,0.577611,1.7534,-0.52198,0.382177,0.0658065
0.848224,1.55575,0.214923,-0.139806,0.597031,0.392388
2.80098,1.46139,-0.363731,0.0841347,0.243653,0.202459
2.51451,1.1626,-0.311581,0.31034,-0.0281204,0.188263
2.70393,0.616929,-0.125697,0.0552155,0.0235337,0.206848
1.8307,0.145792,-0.536197,-0.0436447,-0.0237308,0.327921
0.801079,0.27784,-0.605014,0.0381278,-0.0462853,0.179614
-1.06364,0.559676,-0.286875,0.418649,-0.338586,0.372805
-1.19264,0.744568,0.930539,0.110011,-0.326911,0.0644503
-1.83755,0.0948962,2.36833,0.145128,-0.287144,0.270286
-2.51982,0.254182,3.36481,0.152441,0.406076,0.0171826
1.58032,0.787078,2.61597,0.125066,0.815936,-0.282861
1.619,0.316671,0.574158,-0.0841832,0.745155,-0.490507
4.53788,0.600207,0.268056,-0.0565287,1.05599,-0.134526
11.1096,-0.987564,-0.182119,0.185201,0.430327,0.227438
0.163313,-1.78445,1.79716,0.223522,0.337788,-0.212446
-6.99442,-4.17295,-0.0679139,0.678787,0.830172,1.02379
-5.06987,1.39108,-4.26908,0.409723,0.139823,0.367466
-0.388978,2.49798,-1.49785,0.299405,-0.624988,0.198231
1.32988,1.60488,1.64279,0.369024,-0.733689,0.132959
0.513967,1.38988,2.95425,0.0592893,-0.0700116,-0.249541
-0.944304,-0.0959675,1.73078,0.102056,-0.00122184,-0.181628
-1.50039,-1.12146,1.48426,-0.0887615,0.449286,0.108636
-4.62468,-1.53818,0.0595665,-0.333062,0.462539,0.22505
0.161723,0.50718,-0.456107,-0.241634,0.497555,0.169685
1.25311,1.46568,-1.02558,0.106078,0.268705,0.167578
2.8115,1.55867,-0.929532,0.192405,0.197007,-0.0465133
4.82098,0.922402,-1.06212,0.281851,0.0976179,0.0695778
2.8748,-0.473598,-1.20887,0.226506,-0.0816718,0.284405
-0.09468,-1.08576,-1.31753,-0.0277874,-0.221477,0.370933
-0.758018,-0.934082,-1.6084,0.15967,-0.166061,0.417962
-1.11777,-0.745544,-0.848101,0.531572,-0.0984849,0.314601
0.378122,0.235008,-0.236637,-0.078904,0.0370553,-0.131246
2.45818,-0.303288,-0.51277,0.083951,-0.01246,-0.41524
-1.60517,-2.00008,-0.100288,-0.149045,-0.170696,-0.226302
0.161177,-1.97875,0.0322637,-0.148888,-0.0706339,-0.17526
0.139364,-1.38398,-0.10523,-0.148023,-0.130866,0.0396081
-0.102133,-0.740732,-0.100689,0.111519,0.0346377,0.0800352
-0.282582,-0.318207,0.15446,0.277068,0.234944,0.093238
1.04809,0.0696431,-0.439267,0.148739,0.0515857,0.0132087
0.42556,-0.480764,-0.257459,0.145168,-0.112264,0.105717
-0.313234,-0.34192,0.0198747,0.0248677,-0.17388,0.0877074
0.279822,-0.174502,0.11076,-0.0364993,0.00589776,-0.0186183
-0.618977,-0.276523,0.0236508,-0.132298,-0.0595506,0.145594
-0.472423,0.170467,0.97115,-0.0372024,-0.134966,0.29317
-0.353337,-0.180101,2.74215,0.317483,-0.23865,-0.19575
-1.10939,-0.979668,2.71245,0.454675,-0.127607,-0.319838
-0.489019,-1.62182,2.2766,0.0423587,0.0517572,-0.199827
-0.293626,-1.63698,1.63315,-0.141337,0.117194,0.0311
0.103602,-0.666053,1.15503,-0.198781,0.131374,0.052421
0.128592,0.204209,0.979593,-0.0802611,0.0128533,0.160018
1.22735,1.59892,1.24712,0.0281169,0.00424349,0.064288
-0.406924,1.03661,1.51176,0.294027,-0.106072,-0.00400591
-1.23059,0.251104,0.330993,0.142542,0.0478396,0.0415204
-0.687307,-0.377351,0.36595,-0.0191164,-0.16453,0.0151996
-0.956992,-1.11613,-0.120688,-0.0907488,0.111418,0.0908971
0.106692,-1.32649,-0.228596,-0.0686999,-0.0735459,0.424833
0.688117,-0.638458,-0.525771,-0.343604,0.456169,0.287644
-1.45318,0.826348,-0.0614156,-0.213762,-0.123343,0.115367
-3.05062,3.05168,1.83711,0.151038,-0.138195,-0.211096
-0.0320367,1.75889,1.77452,-0.066293,0.0400075,-0.294659
0.931292,0.987962,1.14954,-0.181504,0.0674096,-0.194211
-0.900305,0.137501,0.871465,0.43356,0.259068,-0.158971
-1.1592,-0.991747,-1.16078,0.892352,0.314775,0.11259
1.13239,-0.359873,-4.12124,0.24003,0.104925,0.0248529
0.36416,-1.2317,-3.32995,-0.0505606,-0.54729,0.152027
-0.881119,-1.21946,-1.1433,-0.0855426,-0.79635,0.233557
-0.0300189,0.0161313,2.09034,0.0574908,-0.361852,0.160233
0.942084,2.5023,4.59939,0.361373,-0.134093,-0.108666
0.852495,1.34165,3.6204,0.524678,0.519897,-0.299304
1.22481,0.78189,0.718183,-0.50139,0.249036,-0.313605
0.425747,-0.0339577,-0.0883353,-0.126257,0.426882,-0.464403
-0.151721,-1.01477,-1.06284,0.407603,0.279234,-0.137716
-3.45747,-2.0624,-3.55363,0.852044,0.0661777,0.219424
0.655693,0.164952,-3.52489,0.0742841,-0.233083,0.133303
1.25614,-0.639969,-1.75449,0.0223354,-0.66571,0.179891
-0.942395,-0.292154,0.108017,-0.085611,-0.750596,0.232858
1.719,0.769487,3.00125,0.017812,-0.369331,0.204845
-0.666906,2.52499,4.05045,0.622798,-0.125228,0.0890505
0.965189,0.776718,1.31344,0.287781,0.776667,-0.375996
0.915264,0.633772,-0.429529,-0.547696,0.175972,-0.37785
1.8553,1.02711,0.113144,-0.345427,0.388774,-0.415911
2.43853,-0.801074,0.699869,0.257055,0.0861388,0.0565075
-4.84461,-2.38777,-2.07371,0.895707,0.0566488,0.245025
0.239653,0.333117,-3.4442,0.196085,0.320852,0.226804
0.808138,-0.572977,-2.73316,-0.157503,-0.660847,0.223427
-0.0241721,0.0840526,-1.21372,-0.260386,-0.689656,0.133385
-0.534693,0.102955,1.43293,0.0727289,-0.603707,0.0658829
-0.985196,-0.410102,4.72004,0.777254,0.0217386,-0.012737
-1.76665,-0.368343,3.21782,0.476918,0.68701,-0.13252
2.2136,0.520539,0.740675,-0.371008,0.329886,0.0417273
0.500133,0.00103922,0.409614,-0.411112,0.242144,-0.137157
-0.145723,0.421977,0.167271,0.0202305,0.235697,0.0443071
-5.41135,-1.48807,-3.38303,0.881711,0.112519,0.280129
3.27605,1.01721,-2.48742,0.00539547,0.0895779,0.0391883
2.93572,0.869067,-1.83277,-0.160627,-0.544993,0.160467
-0.45103,-0.295235,-0.220276,-0.348467,-0.711449,0.0789208
-1.72986,-1.50584,2.70179,0.0261856,-0.479379,0.174193
-3.96424,-2.22664,1.87432,1.02202,0.46761,-0.231762
1.65572,1.11857,0.405627,-0.11972,0.391405,-0.0633107
1.45759,0.697616,0.274059,-0.600634,-0.0487578,-0.185544
-1.0832,-0.00309969,0.41226,-0.417437,-0.0790068,0.0286871
-1.19719,-0.131485,0.248125,0.237354,-0.00259209,0.307155
-2.25076,0.152407,0.259434,0.668717,0.0748203,0.267335
-2.08792,0.235225,0.0426106,-0.0872846,0.151648,-0.082179
-0.893209,-0.613798,-0.54681,-0.338114,0.0222547,-0.303603
-1.46153,-0.981024,-0.0465228,-0.37129,-0.0696011,0.0720485
-2.01729,-0.46564,1.22592,0.114724,-0.0633339,0.295992
-2.70209,0.661263,0.287566,1.01964,0.502537,-0.045294
-1.16678,-0.361146,-0.347535,0.16046,-0.345058,-0.627621
-0.152337,-0.774597,0.0596127,-0.35949,0.0864667,-0.222639
-0.0111504,-0.265848,0.282284,-0.172124,0.198828,0.0558391
-0.619887,0.432701,-0.0140738,0.180347,0.150281,0.16437
2.02783,0.667606,-0.758941,-0.212986,0.308807,-0.179193
3.30933,-0.0525543,-0.92363,0.471643,-0.0804096,-0.0222907
-1.74486,-0.999297,-1.45461,0.0207604,-0.274969,0.0813262
-1.18668,-1.07986,-1.47123,-0.078463,-0.323382,0.118907
-1.12807,-0.995043,-0.587954,-0.126287,-0.513809,0.164363
-1.79567,-1.27142,1.11979,-0.11387,-0.400117,0.196503
-1.19682,-0.820483,2.68866,0.0647622,0.0311096,0.240881
1.41565,0.866822,2.33277,0.669839,0.774459,-0.0331864
2.92721,1.13431,-0.429516,-0.100133,0.237572,-0.286952
0.445297,0.321925,-0.592739,-0.433593,0.0509792,-0.44611
2.16629,-0.0934049,-0.344272,-0.245214,-0.0311866,-0.21472
1.07935,-0.345433,-0.164002,-0.121639,-0.247202,0.0115392
-1.20222,-0.70631,0.1717,0.890987,0.198809,0.2713
-2.41626,-1.32031,-1.44863,0.342614,-0.104683,0.214555
-1.98218,-0.877589,-1.59626,-0.175455,-0.241222,0.167617
-0.6179,-0.840756,-0.101969,-0.163695,-0.381647,0.162729
-0.887368,-0.903046,0.812017,-0.286035,-0.393014,0.180257
-1.59412,-0.687751,1.45118,-0.0552071,-0.249198,0.275296
-0.505698,0.202996,3.06497,0.789573,0.281609,0.152395
4.37133,1.27163,1.7557,0.599535,0.717441,-0.420044
1.97055,0.625936,-0.178717,-0.22425,0.0497712,-0.340501
-0.270544,-0.346205,0.0318164,-0.253648,0.394094,-0.47694
2.81417,-0.823841,-1.16088,-0.150626,0.3334,-0.323772
-0.02503,-1.62599,-1.73793,-0.124701,0.00345695,0.0804816
-2.26501,-1.89873,-2.2948,0.171344,-0.237468,0.340699
-1.83587,-0.922148,-1.35823,1.18375,-0.0468371,0.329192
1.35718,0.822136,0.577381,0.152603,-0.343835,0.0934107
1.33523,1.42941,1.48475,-0.197318,-0.355056,0.0638269
-1.19965,0.595979,2.08754,-0.0469007,-0.230132,0.00386071
-0.56063,-0.21247,2.46913,-0.0506492,0.42035,0.127256
0.242393,0.341082,1.11055,-0.174657,0.30132,-0.115819
-1.53204,0.201604,-0.00637484,-0.12927,0.301472,-0.0612572
-2.02986,-0.115784,-0.906883,0.568869,0.445605,0.0739512
2.36231,0.192002,-1.97904,0.163514,0.219618,-0.147812
1.49585,-0.230968,-2.33107,-0.360611,-0.226779,-0.122175
0.707814,0.0300934,-1.2117,-0.288131,-0.370022,-0.0334764
-0.497639,-0.442955,0.195066,-0.111735,-0.271006,0.181345
-0.506088,-0.460726,1.63435,0.881435,-0.141596,0.338258
-0.872862,-0.583966,1.24913,0.0912616,0.0836293,0.046577
0.207909,0.225913,-0.0128396,-0.182819,-0.00281698,-0.0173334
-0.264017,-0.20915,0.220067,-0.312603,-0.0911461,0.049574
-1.55205,-0.402956,0.621443,-0.0921267,0.0105496,0.18192
-2.5977,-0.00683868,-0.548581,0.939191,0.598784,0.140745
4.27987,1.74431,-1.64217,-0.259565,0.345773,-0.215268
1.11102,0.704429,-2.08856,-0.305802,-0.0825424,-0.185316
1.67549,0.433269,-1.75026,-0.278669,-0.124371,-0.002424
0.712985,0.32727,-1.08647,0.0248449,-0.183432,0.0668056
0.0950882,-0.00586192,0.563064,0.360283,-0.239297,0.16815
-0.845243,-0.461899,2.64918,0.838459,0.0193264,0.289151
0.0183902,0.440062,1.41678,-0.0415887,-0.115458,-0.0187417
0.257835,0.195526,1.56778,-0.202049,-0.113889,0.103404
-2.22842,-0.453599,1.91099,-0.164807,-0.00869766,0.0886303
-3.06745,-0.36904,1.64553,0.157746,0.250662,0.251183
-0.570541,0.523411,0.567826,0.666003,0.691639,0.047069
2.35086,1.10331,-1.30226,-0.131526,0.30443,-0.232921
1.45528,0.307066,-1.32289,-0.352234,0.0726654,-0.279675
3.23914,-0.332734,-0.52034,-0.470747,-0.293242,-0.13587
-2.52031,-1.16383,0.0244189,0.0175657,-0.429328,0.122542
-3.7817,-0.82626,-0.511374,0.305359,-0.0258461,0.261078
-0.500279,-1.0125,0.695577,0.646204,0.246608,0.19989
1.80681,0.465647,-0.283,-0.207308,-0.138641,0.00637841
0.510017,-0.117167,-0.599268,-0.404815,-0.214215,0.01627
-1.57145,-0.4941,0.414683,-0.176576,-0.319048,0.222856
-4.95128,-0.14284,2.51421,0.725836,0.401545,0.124228
6.33897,1.26012,1.51954,-0.349924,0.667378,-0.14731
-1.16521,-0.210851,0.0799439,-0.303556,-0.178264,-0.202858
-3.40324,-0.471898,-0.509048,-0.324577,0.441287,-0.064306
-1.8208,-0.823853,-1.34064,1.03313,0.462263,0.2856
1.49185,0.651758,-2.72252,0.491833,0.197944,-0.165358
2.07137,-0.667296,-2.97891,0.166491,-0.434475,-0.0516161
-0.119484,-1.39009,-1.87444,0.0561684,-0.7713,0.0343397
-2.76873,-1.77287,1.65682,0.147371,-0.760135,0.189439
-1.37257,-1.84836,3.68084,0.246311,0.371166,0.110696
1.20555,0.599293,1.96831,0.194,-0.0578318,0.140692
-2.8411,-0.370766,1.36753,-0.0749303,0.184839,0.196777
-1.38769,0.239959,0.609342,-0.238392,0.358287,-0.062007
-1.26072,0.431228,0.0871729,-0.145099,0.309439,-0.0975491
-1.26641,0.466191,-0.689836,0.119856,0.253962,-0.176506
-0.532009,0.30048,-0.452022,0.398661,0.196595,-0.256134
0.427093,-0.245971,-0.378644,-0.12836,0.11607,-0.334201
1.7001,-0.171629,-0.0751924,0.0982199,-0.0625879,-0.17164
-1.6904,-1.21242,-0.525616,0.140628,-0.00786763,0.0818236
-0.716036,-0.761723,-1.37431,-0.025043,-0.127254,0.111864
-0.318449,-0.672709,-1.0005,-0.0161337,-0.315053,0.173051
-0.894006,-0.12558,0.701173,-0.0800577,-0.334377,0.134545
-1.44683,0.14426,2.6665,0.562435,-0.100052,0.150732
0.250101,-0.257084,1.74057,-0.197848,0.358217,-0.277964
-0.340935,-0.234027,0.0105237,0.0686222,0.0790259,0.0599089
-3.23821,-0.576727,-0.520573,-0.19983,0.150576,0.0521877
-0.275535,0.359559,-0.153346,-0.246679,0.293232,-0.133434
0.727557,0.661499,0.0728243,-0.127533,0.102091,-0.162748
0.41157,0.436519,0.171398,0.217144,0.156043,-0.226071
0.288275,-0.520751,-0.582524,0.299959,0.184101,-0.213675
0.597985,-0.314379,-1.55072,-0.115593,-0.114255,0.0215713
-0.659808,-1.18705,-0.842454,0.102363,-0.177543,0.195874
-1.25356,-0.670816,-0.933502,-0.0512843,-0.303151,0.205222
-0.0389624,-0.162259,0.254796,-0.0923796,-0.311622,0.197233
-0.143363,0.308743,1.9972,0.136656,-0.175631,0.164287
-0.438853,0.363203,2.46906,0.745855,0.186141,0.0952691
0.966196,1.06734,0.743141,-0.574589,0.232365,-0.217867
0.651987,0.153817,0.488254,0.124764,0.329231,-0.0277694
1.10007,0.259201,-0.138999,-0.0844133,0.46037,-0.212632
3.07076,0.189345,-0.749798,0.00187379,0.256812,0.0392201
1.10521,-0.0175227,-1.39154,-0.110313,0.0439562,0.161206
0.295206,-0.107445,-1.24228,-0.0383179,0.000158906,0.254422
-0.143029,0.291794,-0.974047,0.139764,-0.0709222,0.210547
0.00332833,0.396775,-0.741259,0.0995994,0.0327358,0.0746925
1.70893,0.492152,-0.439532,0.27352,-0.154035,-0.0324247
1.1575,-0.19252,-0.650849,0.203253,-0.331625,-0.069415
-0.709058,-0.811266,-0.381369,0.0428886,-0.463999,0.0414006
-1.48422,-1.02622,0.972983,-0.0216337,-0.391273,0.0678311
-2.50218,-1.06473,2.3349,0.323129,-0.0543669,0.208231
-1.56162,-0.967265,2.27902,0.581574,0.293123,0.235917
-1.39903,-0.107968,0.169216,0.103677,-0.0125386,0.131562
-3.25808,-0.718338,-0.266509,-0.273982,0.0850897,0.164807
-1.39697,-0.211724,0.700916,-0.339393,0.218945,0.0528557
-0.423674,0.440879,1.08069,-0.115659,0.317755,-0.0647135
0.71456,0.758194,0.385204,0.311506,0.459338,-0.195825
0.429365,-0.105884,-0.902017,0.157879,0.308177,-0.313456
1.44338,-0.126911,-1.49214,0.0482625,0.108077,-0.23307
-0.0915183,-1.39292,-1.65208,0.201542,-0.174853,0.0509468
-1.0059,-1.19501,-1.87796,0.0157419,-0.322576,0.202342
-0.287171,-0.686194,-0.757764,0.000753522,-0.419539,0.233595
-0.514408,-0.0693124,1.27705,0.19616,-0.413575,0.28859
-0.540438,0.458719,3.29076,0.626298,-0.0358738,0.173644
2.16528,1.31344,1.49822,-0.287537,0.144378,-0.263585
-1.72858,0.040648,0.103979,-0.0486407,-0.118983,0.0352833
-3.05474,-0.459454,0.0381513,-0.152338,0.36338,-0.181785
0.256481,0.0669227,0.1059,-0.230336,0.263957,-0.170197
-0.21552,0.240308,0.093392,0.113527,0.22963,-0.148507
-0.374214,-0.270253,-0.562057,0.520515,0.269041,-0.0921373
0.765079,0.164232,-1.44742,-0.390661,0.0718616,-0.120318
1.29921,-0.491546,-1.1591,0.295696,0.19361,0.0999352
0.822905,-0.396937,-2.23956,0.0969177,-0.165138,0.156023
0.375444,-0.268552,-1.70784,-0.00614816,-0.397153,0.230849
0.257201,0.132728,-0.135994,0.0593089,-0.340232,0.240448
-0.12308,0.606232,1.08609,0.285062,-0.132939,0.17856
-0.25051,0.470191,0.814042,-0.0948935,0.07011,-0.102035
-2.01407,-0.302578,-0.208988,0.0904449,-0.0109671,-0.0647125
-3.36598,-0.77726,-1.02085,-0.0772119,0.360449,-0.388427
0.776518,-0.547795,-1.7868,-0.119699,0.297349,-0.250278
0.884484,-0.600731,-2.07988,-0.0481658,0.208955,-0.0814548
1.07702,-0.536267,-1.78361,0.0607784,0.0652741,0.071331
1.52725,-0.292877,-0.459697,0.182438,-0.0750195,0.0770332
3.70285,0.13576,1.25519,-0.007263,-0.368875,0.172794
1.6519,1.01212,2.4481,0.343394,-0.199986,0.349261
1.94182,0.918081,1.94015,0.329215,-0.208264,0.303958
0.444919,0.935228,0.714264,0.339847,-0.0636019,0.0556909
0.674097,-0.194947,-0.415447,0.566765,-0.153902,0.0243753
-0.874001,-1.10813,0.215061,0.114692,0.0478393,0.0999031
0.0137559,-0.942574,0.588066,0.13602,0.439632,-0.128605
-1.18931,-0.910144,-0.323764,-0.247957,0.538352,0.647721
-3.39857,-1.54004,-2.30458,-0.131567,0.5199,0.0716113
-0.120196,1.34326,-2.59521,-0.409757,0.130569,0.268423
5.89946,1.72169,-2.88391,-0.0854829,-0.217055,0.536206
0.251055,1.29639,-3.58397,0.256592,-0.167314,-0.294944
-0.835164,0.206472,-3.02965,0.612455,-0.276714,-0.36837
0.107395,-0.8187,-1.22555,0.390264,-0.456409,-0.0299409
0.604787,0.0959076,-0.272283,0.0231451,-0.270156,0.280393
-0.788425,0.979166,0.261681,-0.122873,-0.398383,0.0678606
-2.1014,0.269701,0.814823,-0.0559456,-0.297662,0.0071227
-4.49862,2.63317,1.34291,-0.217549,-0.0957972,0.932296
-1.95892,2.29486,2.0085,-0.0277457,0.0267693,0.117598
0.464777,1.52929,2.02147,0.0643454,0.234003,0.224984
2.57382,1.608,0.301179,0.344434,0.485063,0.290038
8.35044,0.801949,-0.612203,0.479488,0.87816,-0.159895
-1.71613,-0.594674,-0.96244,0.0832808,-0.24924,-0.221329
0.224203,-0.626168,-0.418609,-0.0307193,0.345319,0.0821924
-0.689552,-0.693699,-0.337185,-0.157259,0.195123,0.410893
0.648645,0.705019,-0.120075,-0.280044,-0.215546,0.274043
2.78147,1.38566,0.300193,-0.281404,0.118643,-0.0489591
9.79062,0.953342,-0.155836,-0.186802,0.347448,0.31418
2.75299,-0.900999,-1.94058,-0.0178353,0.650807,-0.214291
4.97516,-1.16173,-1.64102,0.39627,0.7524,0.0433478
4.85798,-2.29629,0.0679349,0.943092,0.368746,0.258267
3.22038,-1.04262,1.57408,0.719792,0.223525,0.382638
1.21263,1.17516,2.03084,0.615037,0.204298,0.13132
1.90076,1.85203,2.11664,0.0272305,0.368763,0.0632901
1.59778,0.922647,1.95913,0.0386427,0.0257386,-0.21416
1.09929,-0.16846,2.08614,0.242826,0.23908,-0.133964
0.947384,-1.22228,0.475844,0.234943,0.636286,-0.237452
0.806159,-1.90869,-1.16244,-0.0803088,0.223304,0.343492
-0.293279,-0.817608,-0.163947,-0.140545,-0.302579,0.277877
-0.572266,0.551613,0.811241,0.118926,-0.20256,-0.075455
0.830818,1.53621,2.47262,0.135868,0.0444227,-0.196374
1.05277,1.85063,3.3892,0.0867797,0.143809,-0.107121
-2.81233,2.39445,3.61268,0.113698,0.382729,0.0891668
-3.66795,2.73086,1.97577,0.0419759,0.750088,-0.112676
-4.7188,-0.362575,0.962979,-0.567375,0.140214,-0.276419
1.12244,1.22037,-1.47216,-0.762163,0.428578,0.0217251
14.6059,-1.03536,1.48631,0.578663,-0.974758,-1.29326
-0.428405,0.259711,-1.11915,0.219481,-0.569527,-0.64447
1.1857,2.41892,2.22675,-0.22747,-1.54298,0.958644
-1.39666,2.97152,3.13878,0.66321,-0.168716,-0.170779
-6.38602,1.08045,4.44655,0.295774,-0.290286,0.225794
3.67881,-2.71846,2.47988,1.09339,1.72013,0.173507
2.03183,0.872409,-1.53488,-0.0334803,-0.127981,0.0579132
3.2699,-0.210416,-0.19728,0.156089,-0.254187,-0.248996
-1.09722,-0.912706,-1.13756,0.153512,-0.703139,0.321467
1.31923,0.762921,0.29555,0.213574,-0.27406,1.28563
-0.561197,3.71396,-1.36321,0.244285,0.160737,0.852822
-0.00641178,4.39948,-4.33266,0.806347,1.77845,-0.12039
-4.23247,3.14725,-6.93563,1.21932,0.588398,-0.810254
-1.8742,3.81771,-5.51972,1.19543,0.564342,-0.240011
-0.867004,2.77263,-1.63605,0.911181,-0.634146,-0.282517
0.56176,0.441599,0.697603,0.27529,-0.337367,-0.0962113
0.207988,0.306174,-0.541175,-0.0037173,0.245695,-0.118592
-0.0532309,-0.201175,-1.23656,0.303661,-0.627024,-0.16297
0.78493,-1.67408,0.433292,0.364568,-0.354277,-0.524856
6.52591,0.757249,6.63282,0.671199,-0.611642,-0.0711907
-3.48503,1.60834,8.25339,0.846921,-0.816495,0.421241
-8.49687,-5.7034,8.60577,5.09159,1.68074,2.45603
6.27269,3.23371,1.84092,0.408698,2.35892,0.37183
3.92873,4.03797,-1.05681,0.2986,0.819122,-0.153019
-2.41898,0.72802,-1.73118,-0.0182825,0.290537,-0.641034
-1.08413,-0.139945,-0.265324,-0.0610304,0.0891106,-0.435302
-0.0360926,-0.435641,-0.309699,0.38408,0.310695,-0.0615857
0.863864,-0.712748,-0.173113,-0.00918806,0.0796449,0.312042
-1.09297,0.464478,-0.372915,-0.0305399,-0.601795,0.00683916
0.378571,0.718694,0.863935,0.217362,-0.11855,-0.0537026
-0.673638,-0.0931832,-0.224557,0.10904,0.0961652,-0.389022
-0.244372,-0.0622615,-0.0714317,-0.127285,-0.111537,-0.0403304
-1.36522,0.111003,-0.432544,-0.0299827,0.0980001,-0.0603982
-0.614774,0.154011,-0.559296,0.0627027,0.120093,-0.0311007
-0.4384,-0.0699345,-0.266564,0.276202,0.00762498,0.0127499
-0.424929,-0.29648,-0.309921,0.119507,-0.156957,-0.00961637
-0.285373,-0.311857,-0.490935,-0.0248644,-0.0892242,-0.0882233
-0.966159,-0.607167,-0.452036,0.0571309,-0.221545,-0.0412999
-0.964676,-0.744823,-0.369936,-0.111103,-0.00359744,9.84669e-05
-0.649179,-0.878535,-0.340108,-0.0835885,-0.0739847,0.0643291
-0.52507,-0.743907,-0.266794,-0.0626984,0.0711281,0.0594594
-0.864888,-0.614083,-0.0872705,-0.0612667,-0.0135018,0.0209357
-0.480625,-0.500651,0.194434,0.18362,0.0625862,0.14961
-0.930573,-0.819743,0.172381,-0.150732,-0.118755,-0.170267
0.124195,-0.255574,0.107498,-0.0103213,0.235747,-0.0346868
0.686568,-0.164833,-0.292721,0.0655797,0.0295741,0.190869
0.982882,-0.139216,0.434767,-0.0473742,-0.124007,0.223645
2.26167,0.908994,0.54815,-0.0582327,0.0547474,0.423689
3.11986,-0.342061,0.202613,0.268126,0.0496992,-0.31469
3.25996,-2.05911,0.621349,0.321233,-0.60862,0.0229124
-5.9551,-2.11638,0.534865,0.179003,-0.329384,0.485009
-0.139111,-1.69918,2.17584,-0.115442,0.182438,0.289191
-0.822426,-0.238345,0.386979,-0.206828,0.662163,0.338812
0.859122,1.29912,-1.14671,-0.464446,0.78708,0.20506
-1.68838,1.38528,-1.84596,0.117347,0.00975752,0.134133
-2.55548,0.528234,-1.19723,0.454324,-0.331572,-0.402936
-3.68751,0.155454,-1.06337,0.446363,0.0715326,-0.480698
2.54785,0.0189295,-0.691888,0.510077,0.555722,-0.371749
5.83665,-1.7285,0.820105,0.287413,-0.161757,-0.0204537
0.513035,-2.01254,3.46031,-0.0228238,-0.554011,0.557347
-0.490462,-0.359912,3.70334,0.0765565,0.119735,0.266087
0.421086,0.208465,2.31729,0.0410565,0.491624,0.1006
-1.0909,0.239593,0.528184,-0.238152,0.402621,-0.09433
-1.3797,0.616015,-0.582251,-0.192253,0.443707,-0.0799317
-1.99902,0.192659,-1.65775,0.521418,0.274582,0.180265
-3.27276,0.198786,-2.98103,0.211013,0.0754935,0.125307
-1.21589,0.909607,-2.4373,-0.138375,0.228398,0.076399
-2.4258,1.48087,-1.86964,-0.101453,0.0917552,0.115963
-2.18861,2.00653,-1.0954,-0.0196927,0.0788093,0.14283
-0.543746,1.50479,-0.20665,-0.0404488,0.102788,-0.16599
-1.08001,0.846299,0.512538,-0.0748073,-0.106111,-0.158978
0.060858,0.607489,0.663669,0.119417,0.0453224,0.0845323
0.0815331,-0.154223,0.625947,0.052092,0.204257,0.07059
1.00148,0.310688,-0.0595672,0.0627079,-0.0680367,0.0281755
0.192948,0.442102,-0.395736,-0.0914238,-0.0936382,0.0423071
0.973514,0.639278,-0.310753,-0.0609372,-0.0438347,-0.11306
0.306318,0.780575,0.179458,-0.04316,-0.0546968,-0.0258715
-0.24295,0.809049,-0.268328,-0.103103,-0.0594655,0.000516415
-0.153109,1.07502,-0.235525,-0.0705073,0.0377259,0.0285212
-0.344489,-0.0712972,0.826819,-0.0180033,-0.220709,0.0259554
-1.02075,0.74743,0.809362,-0.178079,-0.000394344,0.178522
-0.160897,0.842722,0.0864865,0.0201801,-0.126243,0.0814983
-0.155439,0.668666,0.123963,0.0665548,-0.133005,-0.0236323
-0.377461,0.264243,0.27213,-0.0470342,-0.0793849,-0.0483801
-0.0152619,-0.213022,-0.0535675,-0.0406233,0.0243232,0.0394799
-0.0460301,-0.809681,0.200201,0.0462506,0.125563,0.304076
0.13392,0.0325173,-0.0738326,-0.0781157,-0.0452876,0.000260592
0.309839,0.210468,-0.249555,-0.00744894,-0.0643389,-0.0143975
0.459424,0.541123,0.146325,-0.126892,-0.0791236,-0.0524002
0.174141,0.635718,0.361537,-0.0759137,-0.146848,-0.094768
0.00452765,0.487643,0.519992,-0.073305,-0.0238189,0.025303
-0.461891,0.237086,0.588253,-0.0807837,0.021218,0.0273858
-0.297712,0.469376,0.93888,-0.0324063,0.120448,0.164876
0.488405,0.963216,0.856352,-0.0935082,-0.0672802,0.205998
0.307379,1.02547,0.334935,-0.0107314,-0.161449,0.0122806
0.183981,0.820243,0.208658,-0.0446673,-0.152055,0.00188184
0.334305,0.481275,0.0757264,-0.0400893,-0.0318981,-0.0139401
0.365423,0.0228147,-0.0248241,0.0475537,0.00998682,0.0743355
0.0891251,-0.324942,0.129183,0.111997,0.0784183,0.171299
-0.0435525,-0.213928,0.0264644,0.149587,-0.0762374,-0.029588
-0.385561,-0.556504,0.060528,-0.0436887,-0.0964802,-0.0387585
-0.03591,-0.255533,0.0609531,-0.174292,-0.0640647,-0.0836077
0.0189081,0.353347,0.0860575,-0.260993,0.019413,0.012822
-0.0869133,1.06785,-0.0343632,-0.112997,0.106692,0.127562
-0.595258,0.881296,-0.0339889,-0.00549334,0.144679,0.122694
-0.200797,0.899531,0.17999,0.164139,0.119298,-0.0366124
0.209495,0.656486,0.0356571,0.174743,0.000520349,0.0509408
-0.0103469,0.0909343,-0.327976,0.242613,-0.0647969,-0.0442262
0.105015,-0.359024,-0.417584,0.139872,-0.0472169,-0.0836949
0.30114,-0.735414,-0.550098,0.0681957,0.0396289,-0.061021
0.397715,-1.05174,-0.586152,0.0328842,0.100106,0.016816
0.462317,-1.43426,-0.617618,0.0803974,0.135108,0.201596
0.472601,-1.06194,-0.891381,0.134121,0.00968224,-0.0318661
0.137719,-1.30209,-0.922064,0.0867483,-0.0678559,-0.0174598
0.217067,-1.00616,-0.864921,-0.0185236,-0.0926405,-0.108222
0.0643214,-0.863791,-0.762776,-0.00187922,-0.0560014,-0.12838
-0.124937,-0.758551,-0.526972,-0.123467,0.0171219,-0.0615605
-0.112885,-0.376105,-0.505901,-0.195247,0.11292,0.0352682
0.0653561,0.00896479,-0.133772,-0.0503111,0.219753,0.173617
0.517899,0.516165,-0.0509583,0.0412024,-0.043692,0.0488352
0.0840809,0.0106432,-0.388005,0.237613,-0.0614923,0.0227743
0.180003,-0.501324,-0.515745,0.137955,-0.0739652,-0.109716
0.134775,-1.00768,-0.550026,0.0532956,-0.0243355,-0.066642
0.383386,-1.23877,-0.6491,-0.00511713,0.0366659,0.0961808
0.447261,-1.39264,-0.644658,0.0274077,0.0635543,0.194362
0.0220964,-1.27377,-0.659842,0.159743,0.00846422,-0.0272815
0.201654,-1.42678,-0.731901,0.143662,-0.0273527,-0.0357686
0.0747172,-1.39682,-0.758214,-0.0353088,-0.0429393,-0.099373
-0.0985984,-1.14987,-0.719863,-0.15238,-0.0521796,-0.0916183
-0.151978,-0.606674,-0.429763,-0.253147,-0.0237302,-0.0509548
-0.332419,-0.0637701,-0.362374,-0.102383,0.075366,0.00234413
-0.369885,-0.146478,-0.0275505,-0.0286487,0.123428,0.190021
0.221957,0.413181,0.18152,-0.0320152,0.033388,0.00507879
-0.0838832,0.0838209,-0.151912,0.137547,-0.0655966,0.0692446
0.0327801,-0.175958,-0.219242,0.0147877,-0.0939167,-0.104837
0.107491,-0.488157,-0.348356,0.020466,-0.0481598,-0.0148668
0.322258,-0.689248,-0.408217,0.0597217,0.00142896,0.0608597
0.113192,-1.12064,-0.407274,0.0606858,0.0771387,0.307444
0.151931,-0.400391,-0.230163,0.00672086,0.0876343,-0.129081
0.0388579,-0.513555,-0.241605,-0.0346026,-0.0505051,-0.0318234
0.154933,-0.0597457,-0.293261,-0.0284479,-0.0409738,-0.0996276
0.137627,0.163724,-0.178315,-0.0151013,-0.131492,-0.249555
0.0257182,0.350706,-0.200246,-0.0588589,-0.153706,-0.16314
-0.118751,0.333544,-0.303247,0.0690494,-0.0453675,-0.122751
-0.220823,-0.43606,-0.0197735,0.113126,0.13095,0.189404
1.86631,-1.10473,0.898419,0.224912,0.0974942,-0.0564122
1.10473,-1.51251,1.33414,0.128757,-0.0769843,-0.0335214
-0.250724,-0.973725,0.373584,-0.313515,-0.16559,-0.0383286
-0.0651066,-0.563096,-0.517334,-0.358809,-0.110926,0.141203
-0.758247,-0.185585,-1.17947,-0.190081,0.0991868,0.289348
-0.668107,1.37681,-0.144324,0.0343551,0.699279,0.582959
0.956136,2.0713,0.0399605,0.204959,0.00439155,-0.43322
0.44725,1.17115,0.0139738,0.162055,-0.417338,-0.355426
0.347185,0.106414,0.12521,0.104157,-0.295821,-0.164777
-1.07,-0.534735,-0.00521872,0.0425111,0.0434589,-0.022053
-0.198444,-0.456368,-0.0174225,0.0319417,0.177611,0.0416517
-0.586925,-0.221736,0.211453,0.086479,0.102083,0.246419
-0.523857,0.246076,0.203315,-0.182978,-0.151028,0.0742584
-0.199329,0.368212,-0.0612378,-0.141677,0.011123,0.0051533
1.3943,0.753214,-0.33663,-0.0942893,-0.0585344,-0.274625
0.210168,0.532791,0.159329,0.018868,-0.00334239,0.0458027
-0.211063,0.52295,0.456979,0.0910314,0.119289,-0.0478241
0.198294,0.568312,0.308637,-0.0689883,0.0356241,-0.145774
1.30272,0.94328,0.190674,0.0657299,-0.0868054,-0.0831612
1.01946,-0.0514248,-0.0486115,0.0866655,0.0676028,0.196245
1.28817,-2.10296,0.348203,0.697779,-0.415836,-0.0471044
0.914729,-3.1386,2.31412,0.258843,-0.682154,-0.257652
1.46029,-2.67948,5.48327,0.302358,0.607383,0.502062
2.73472,1.76578,3.85121,-0.178993,0.377532,0.155085
3.76688,2.31699,1.2541,-0.707705,0.554256,-0.600466
-2.20482,-2.60789,-0.363574,0.630063,0.211088,0.679305
-2.47459,-1.96505,-3.66064,0.195623,0.341298,-0.00874877
0.274777,-1.33595,-3.12234,0.205988,-0.662907,0.271246
-2.10064,-0.221505,1.52104,0.134484,-0.609941,0.154211
2.19232,2.00999,3.99718,-0.159625,-0.271792,-0.313227
0.212149,2.05501,4.45104,0.361426,-0.289398,0.2622
-1.26514,0.340893,0.958521,0.655321,0.442069,0.0479493
-0.248433,-0.65527,-0.162699,-0.437391,0.343606,-0.299828
-2.2136,-0.668534,-0.046032,-0.435412,0.159739,0.155369
-2.7333,0.770808,-2.44529,0.00671899,1.05473,0.0245551
4.35942,1.38689,-3.80851,0.234565,0.287275,-0.159139
1.62645,-0.0571513,-3.67048,0.640831,-0.496572,0.117127
-1.1252,-1.40144,-0.249826,0.669694,-0.72581,0.315248
-0.195936,-0.624652,1.48591,0.0152975,-0.555657,0.104482
0.235059,0.231477,2.56645,0.115096,-0.376015,0.315266
-1.00003,1.56519,4.20073,0.29257,0.532852,-0.0264282
3.36161,0.861004,1.67765,-0.16669,0.601757,-0.429571
-1.11655,0.410302,-0.212392,0.322646,0.0940278,0.0079726
-2.3312,-0.806114,-2.41433,-0.0414423,0.376291,-0.115188
-0.498961,-0.90482,-2.47841,-0.0264441,0.136771,0.161285
-0.161687,0.0737733,-1.04537,0.439808,-0.266551,0.164048
1.34947,1.31626,0.31237,0.48149,-0.0747612,-0.292454
0.549934,0.648334,1.01782,-0.254446,-0.425016,-0.0978078
-0.39091,0.250846,1.76585,-0.334404,0.0617343,-0.324615
-0.549005,0.312928,1.15905,0.504857,0.753496,0.10082
2.84903,0.192954,-1.83727,0.159725,0.45112,0.146947
0.152839,-1.24735,-3.20884,0.327529,-0.152317,0.261611
-0.592267,-0.7716,-3.30447,0.287243,-0.460692,0.254504
1.03839,-0.210562,-1.85746,0.210505,-0.654893,0.274447
-0.229668,-0.422395,0.459837,0.0952195,-0.780074,0.272739
-0.408532,0.0390858,2.22339,-0.0667044,-0.518725,0.137756
-1.35256,0.908209,4.64173,0.447747,0.185296,0.0814211
1.00231,1.44136,3.89704,0.457838,0.608711,-0.469472
1.12416,0.0839506,1.05461,-0.466607,0.401764,-0.510633
-2.24466,-1.48547,-0.533403,0.370477,0.253593,0.160654
-4.28413,-0.25616,-4.57813,0.170213,0.410725,0.237128
3.46433,0.772668,-3.5867,-0.0360467,0.110055,-0.00363231
0.448233,-0.198507,-2.5489,0.37057,-0.874047,0.372274
-1.21332,1.13006,2.07013,0.217085,-0.34271,-0.185079
2.66252,1.9084,3.52414,-0.280836,-0.325192,-0.20025
-2.0458,0.596761,2.77778,0.884409,-0.240791,0.283973
-1.21203,-0.24448,0.984956,0.297387,0.556178,0.104791
0.297161,-0.848226,-0.314327,-0.542374,0.246022,-0.191127
-2.36253,-0.576499,-0.0129928,-0.284974,0.00712869,0.328962
-1.82895,0.816014,-1.24767,-0.112065,0.851041,-0.0890331
4.07206,1.6021,-1.81405,-0.16124,0.297739,-0.182152
1.37008,-0.215171,-2.51649,0.619008,-0.350064,0.151771
-2.48973,-1.4124,-1.60859,0.614325,-0.532764,0.378843
0.4938,-0.437143,0.281007,-0.199516,-0.510927,-0.108698
0.635306,-0.136033,2.71351,-0.185078,-0.497727,0.16427
-0.453842,1.14504,3.63388,0.234776,0.622849,-0.0966096
3.00947,0.850123,1.41357,-0.376974,0.464243,-0.454747
1.25321,0.0806836,1.07542,0.270195,0.298238,-0.25144
-3.64909,-1.86493,-3.72124,0.44392,0.13976,0.16202
-0.355745,-0.278976,-3.70851,0.0716023,0.0203332,0.0248908
1.61888,-0.617097,-2.56958,0.00526285,-0.845321,0.274596
-2.72698,0.117005,2.40973,0.268148,-0.602254,0.357258
2.37347,1.90243,3.65345,0.122659,-0.140877,-0.119031
2.01646,1.41655,2.97359,-0.17969,0.0218691,-0.427612
-3.3282,-1.15697,1.76719,1.10988,0.303515,0.144732
-1.25685,-0.33196,-0.801087,-0.00246412,0.359278,-0.0716806
0.032671,-1.00835,-1.58787,-0.559094,0.188432,0.0689291
-2.53246,-0.607096,-1.69944,0.400835,0.110442,0.323776
1.0757,1.4888,-2.54146,0.0746785,0.353868,-0.0313944
1.43989,1.76842,-3.13703,-0.207806,-0.0752319,-0.232756
0.128823,-0.708628,0.0313845,0.993966,-0.876273,0.293047
-0.63273,-0.652386,1.32099,0.200198,-0.568222,-0.0659406
-0.587512,-1.20152,2.51711,-0.174156,-0.225293,0.155934
-2.53654,-0.453375,3.12573,0.510943,0.29348,0.30075
-0.236033,0.404323,1.63723,0.0555992,0.637655,-0.203078
-0.603527,0.22974,0.601658,-0.11357,0.243753,-0.0805695
-0.832004,0.372718,-0.200393,-0.137972,0.465902,-0.0802333
0.263731,0.054128,-1.70928,0.858289,0.4024,-0.0628536
-0.405325,-0.692568,-3.23162,0.600828,-0.121365,-0.150569
0.286728,-1.02216,-2.04306,-0.0145327,-0.453745,-0.131455
-0.618431,-1.25104,-0.153806,-0.0237722,-0.683431,0.156499
-1.00183,-1.43599,2.032,0.50826,-0.290634,0.283735
-0.339817,0.454652,2.27331,0.12243,-0.045942,-0.0252784
-0.626672,0.176354,2.43751,-0.101665,0.146946,-0.107284
-1.78776,-0.290209,1.4639,-0.155552,0.323259,-0.0705041
-0.403397,-0.207916,0.253724,-0.26057,0.476637,-0.0961876
-0.544254,-0.28526,-0.665167,-0.0960701,0.331293,0.0242743
-0.152558,-0.108871,-1.64034,0.211641,0.29331,-0.0155529
0.94688,0.124148,-1.68902,0.304481,-0.0626202,0.0473293
0.55056,0.0298973,-0.781709,-0.123179,-0.153356,-0.0189229
-0.278356,-0.325696,0.149179,-0.292746,-0.258324,0.0507703
-1.53244,-0.0912434,1.73388,0.166323,-0.172816,0.224433
1.17341,0.699483,1.21642,0.753479,0.376281,-0.239143
0.50547,0.445167,-0.341166,-0.207649,-0.0478602,-0.170774
-0.393459,-0.0849967,0.301044,-0.475578,0.0314335,-0.240038
-0.119819,-0.00101865,0.795146,-0.147534,0.280257,-0.161158
-0.942706,0.295624,-0.353096,0.273107,0.432858,0.0406222
2.58141,0.587521,-1.72437,0.109619,0.382687,0.151632
1.55342,-0.376874,-2.66754,0.458146,-0.0915378,0.271084
0.303777,-0.226659,-2.82705,0.11011,-0.367903,0.203407
0.850159,0.00987963,-1.1042,-0.0101141,-0.604282,0.209977
-0.189037,0.199703,1.31819,0.151066,-0.603899,0.185206
-1.29657,0.297995,3.90226,0.740726,-0.278571,0.176522
0.233606,0.598636,3.0032,0.306569,0.178126,-0.140098
-1.43898,-0.127716,1.68639,-0.0471548,0.334877,-0.01623
-0.0935808,-0.196918,0.567867,-0.091096,0.67558,-0.057195
0.977819,-0.135973,-0.768352,-0.122845,0.529101,-0.0388018
0.811225,-0.311605,-1.70593,0.00185317,0.246792,0.0761878
0.555725,-0.152966,-1.50491,0.306295,0.139689,0.245291
1.66876,0.487648,-1.81154,0.0588917,0.0727311,0.3122
1.87532,0.715252,-1.67869,0.201121,-0.0608381,0.369673
1.2168,0.823925,-1.51518,0.128779,-0.246049,0.357403
1.24301,1.15247,-0.547065,-0.0288984,-0.35845,0.260164
0.725655,1.13382,0.781337,0.0352046,-0.378498,0.167612
-0.118047,0.709789,2.27462,0.31556,-0.252009,0.0574459
-0.128851,0.372253,2.27997,0.142538,0.228967,-0.267225
-0.149496,-0.223103,0.841351,0.0969628,0.168502,-0.122157
-1.68591,-0.579453,-0.186731,-0.111009,0.294485,-0.0651085
0.893184,-0.101999,-0.31373,-0.212309,0.26921,-0.0289066
0.665095,-0.000696808,-0.512902,-0.127661,0.144555,-0.00118899
0.447872,0.150103,-0.502942,-0.00519466,0.166923,0.0335193
0.897581,0.436328,-0.339641,0.135636,0.387999,0.0157673
2.81029,0.0966147,-1.35812,0.34967,0.249754,0.140524
-0.160107,-0.394102,-2.87685,0.179206,-0.197869,0.207849
0.760493,0.0411399,-2.2031,0.107072,-0.391697,0.201635
0.400362,0.437882,-0.277409,-0.0292342,-0.611832,0.188224
-0.450382,0.610743,2.30073,0.217486,-0.459852,0.0999048
-0.834119,0.398493,3.54114,0.390074,0.0278365,-0.117851
-1.08539,-0.245513,1.67031,0.247248,0.149152,-0.0170729
-2.15229,-0.352406,0.556893,-0.170496,0.381356,0.0310521
0.216692,0.125146,0.395987,-0.177577,0.464628,-0.0304681
0.43806,0.245857,-0.726905,-0.0943669,0.340615,-0.0951639
0.350046,0.251522,-1.19098,0.0831476,0.167703,-0.0453643
1.50197,0.160969,-1.16364,0.0501033,0.254195,-0.0768294
2.10312,-0.461516,-1.9651,0.325928,0.0545222,0.122235
-0.312741,-0.609186,-2.54587,0.105003,-0.275388,0.242488
0.894238,0.023224,-1.39581,0.0448443,-0.362592,0.258019
0.333614,0.478939,-0.0396581,-0.0049485,-0.454771,0.230568
0.0623457,0.82278,1.60571,0.164393,-0.295423,0.086349
-0.772939,0.675022,2.8782,0.438701,-0.112248,-0.0362849
-1.0105,0.217916,2.21463,0.307232,0.0705014,-0.160138
-2.48368,-0.541025,1.28342,-0.111432,0.234361,-0.0214914
-0.592244,-0.224311,0.569381,-0.151835,0.492968,-0.00248498
-0.11746,0.144567,-0.248597,-0.174834,0.390792,-0.0351184
0.50225,0.197067,-0.500907,0.0081228,0.326335,-0.004291
1.53409,0.36592,-0.62208,-0.0108951,0.41912,-0.0824813
2.77293,-0.329523,-1.33093,0.373886,0.198328,0.127568
0.136556,-0.582792,-3.14056,0.144857,-0.163347,0.243538
0.295319,-0.210477,-3.3518,0.257535,-0.301653,0.34764
-1.00268,0.417871,-2.55298,0.332773,-0.288803,0.296921
-0.898871,0.704963,-1.43366,0.196976,-0.169295,0.0490199
-0.902859,0.898227,-0.870783,-0.0577689,-0.0623479,-0.0362756
-0.72515,1.40703,-0.598825,0.0485019,0.0646486,-0.147138
-1.01055,0.801717,-0.519041,0.0867545,-0.219493,-0.202088
-0.501212,0.23439,0.249417,0.10051,-0.168219,-0.238025
-0.310777,0.0654106,0.215967,-0.0790518,-0.0276312,-0.22736
-0.0744049,-0.309833,0.755647,-0.241008,0.00526541,-0.145615
-0.393912,-0.0533532,1.29129,-0.1906,0.150058,-0.0669212
1.56605,0.119222,0.64575,0.0430355,0.349645,0.362482
1.70065,0.327889,-0.918239,0.149638,-0.13222,0.119643
2.70403,0.0194852,0.302344,0.197953,-0.577225,0.183817
1.99765,0.329231,2.41963,0.311611,-0.662748,0.212155
-0.632086,0.848533,5.0348,0.574573,-0.360878,0.292345
-2.82378,0.469363,4.72241,0.841574,0.15141,0.107056
-1.32334,0.291972,2.27815,0.190526,0.487391,0.0205287
-0.792849,0.182413,1.55324,-0.0774504,0.749739,-0.0503666
0.0446802,0.285658,0.481914,-0.176619,0.909617,-0.179853
1.25701,0.544298,-1.35937,0.353416,0.743123,-0.0921577
1.02288,-0.368082,-3.36835,0.345671,0.176081,0.0699407
0.280855,-0.791213,-3.75837,0.522005,-0.0612634,0.195748
0.90958,0.130986,-3.29402,0.258844,-0.373073,0.190234
1.89114,0.169874,-2.01166,0.264121,-0.605779,0.394935
0.340497,0.326038,-0.121982,0.371905,-0.672825,0.39426
-0.947329,0.728347,2.75433,0.568607,-0.518128,0.229695
-0.0584713,1.30088,4.3438,0.457185,-0.077133,-0.0952544
-0.690198,0.785484,3.16307,0.138663,0.177915,-0.0271229
-1.02015,0.585757,1.81475,-0.0263083,0.57346,-0.240197
-0.250372,0.16522,0.5083,0.00448513,0.727641,-0.277146
0.141302,-0.175507,-1.13664,0.0511959,0.611357,-0.151637
0.364335,-0.465815,-2.12224,0.204136,0.47624,-0.12931
1.73526,-0.978732,-2.85208,0.501912,0.0463762,0.251885
0.422135,-0.854594,-3.29052,0.177127,-0.371251,0.29503
0.535896,-0.155765,-2.50397,0.157824,-0.466435,0.361787
0.645939,0.269229,-0.711322,0.341657,-0.596965,0.407939
-0.296749,0.875694,1.77604,0.511765,-0.514754,0.206852
0.473559,1.52193,3.31223,0.465521,-0.248738,-0.0434234
-1.39874,0.894655,2.97914,0.0493176,-0.0684518,-0.0431092
-2.09656,0.523353,2.31436,-0.00537664,0.36448,-0.137465
-0.318373,0.308623,1.24007,0.091428,0.77606,-0.274927
0.561694,0.282401,-0.546115,0.277323,0.656508,-0.108238
0.629868,-0.439562,-2.26565,0.301331,0.411155,-0.0858333
1.32154,-1.12941,-3.06741,0.358462,0.0408649,0.118984
0.643423,-0.929311,-3.16206,0.128907,-0.325902,0.248175
0.673005,-0.802576,-2.14668,0.200634,-0.463158,0.435462
0.11163,-0.167026,-0.575871,0.426191,-0.616967,0.543259
-0.34236,1.1068,1.96776,0.294016,-0.43973,0.243661
1.32137,2.1933,3.37516,0.215922,-0.218022,0.054386
0.980688,1.51067,2.59193,0.110452,0.0488098,-0.312853
-2.02611,0.252766,0.934873,-0.150272,0.193643,-0.348837
-1.55875,-0.519762,0.403133,-0.0286297,0.531144,-0.222475
0.100875,-0.1913,-0.412282,0.0494422,0.440954,0.0394311
-0.242908,-0.0846158,-1.24979,0.0927056,0.352381,0.036922
2.71507,-0.00337395,-1.76919,0.258358,0.317684,0.134004
1.78084,-0.543388,-3.11009,0.137205,-0.255314,0.253495
-0.27918,-0.616085,-2.81282,0.156603,-0.491752,0.313876
-0.34072,-0.159375,-0.672707,0.350665,-0.546729,0.247828
-0.345065,0.497716,2.46105,0.382386,-0.438378,0.115814
0.468573,1.00296,3.41601,0.340175,-0.214235,-0.0364167
-1.59833,0.364333,2.61215,0.0187507,0.0158681,0.078967
-1.57405,0.23177,1.34058,-0.126982,0.388276,-0.091143
-0.503347,0.310845,0.598294,-0.00102603,0.470072,-0.116977
-0.440758,0.363318,-0.521547,0.0485978,0.481925,-0.115122
0.727771,0.0695166,-1.26318,-0.0118408,0.519818,-0.26513
1.92144,-0.631352,-2.04055,0.315867,0.0896176,0.102199
0.755462,-0.685967,-2.62259,-0.0191932,-0.257954,0.132172
0.319445,-0.772037,-1.93985,0.138602,-0.386819,0.243306
-0.20744,-0.112143,-0.4834,0.206453,-0.486223,0.337542
-0.26821,0.64095,1.93687,0.408363,-0.327819,0.243677
0.596852,1.0037,2.06063,0.535754,-0.263454,-0.0137789
-1.49131,0.534789,1.78553,-0.120107,-0.117826,-0.123085
-1.78204,0.108283,1.49338,-0.20692,0.213512,-0.172355
-0.937442,-0.0540427,1.27109,0.0234707,0.449457,-0.143203
-0.649017,0.20651,0.124033,0.109892,0.600404,-0.113432
1.18518,0.158977,-1.21931,-0.113704,0.54401,-0.132347
1.33871,-1.01386,-2.34476,0.337321,0.0894655,0.0875063
-0.364513,-0.713862,-3.17578,-0.012742,-0.22359,0.151755
0.695021,-0.460925,-2.23749,0.067247,-0.361842,0.261584
0.404345,-0.297322,-0.436104,0.32313,-0.53239,0.332536
-0.418475,0.427136,1.77315,0.432569,-0.372677,0.188639
0.39835,0.984089,2.36559,0.49546,-0.220952,-0.00147045
-0.151714,0.906462,2.32877,-0.115984,-0.0391542,-0.058324
-0.543549,0.557723,1.8712,-0.159464,0.30404,-0.25052
-0.727868,0.367266,0.999889,-0.00240147,0.433752,-0.193437
1.15237,0.623708,0.0222941,0.174287,0.789074,-0.363736
1.65476,-0.766258,-1.72334,0.323708,0.318774,-0.085564
-0.529401,-1.65491,-3.22479,0.279898,-0.0553147,0.12653
-0.448063,-0.94707,-3.40644,0.0592839,-0.305169,0.193388
0.491051,-0.593029,-2.12415,0.0975524,-0.538357,0.308424
-0.11866,0.130825,0.442769,0.285341,-0.586558,0.318743
0.114262,0.855367,3.15708,0.386233,-0.310327,0.100727
0.929134,1.27228,3.07943,0.606799,-0.130619,-0.00120467
-1.24418,0.950362,1.91518,-0.0693238,-0.00338119,-0.0772604
-1.62389,0.412377,1.36379,-0.174122,0.403432,-0.225461
-0.573473,0.154267,0.823419,0.0616364,0.575581,-0.22214
-0.196609,0.47105,-0.506374,0.228108,0.522998,-0.161909
1.03351,-0.124226,-1.96916,0.264969,0.376977,-0.121119
1.22584,-1.16849,-2.85383,0.285268,-0.017995,0.0626259
0.342498,-0.9022,-3.06187,-0.0674662,-0.382569,0.200282
0.226981,-0.593223,-1.73836,0.0517884,-0.487178,0.25833
-0.147205,0.0521887,0.665409,0.359787,-0.504609,0.309806
-0.0805078,0.799105,2.66416,0.299274,-0.247099,0.0931343
0.794601,0.997952,2.52297,0.468217,-0.116138,0.00176817
-1.33455,0.765715,1.96412,-0.173207,-0.0113145,-0.126684
-1.3226,0.311237,1.68824,-0.118665,0.443592,-0.237942
-0.44544,0.0591657,0.860841,0.193106,0.65261,-0.225512
0.338631,-0.25614,-0.73792,0.646278,0.63128,-0.212371
1.5125,-0.722074,-2.17398,0.497365,0.344719,0.0129135
0.541765,-1.37856,-3.55058,0.214217,-0.14509,0.174378
0.0582127,-0.749062,-3.57571,0.0562913,-0.308032,0.276169
0.828807,-0.331618,-2.14915,0.163933,-0.564443,0.391941
-0.0272019,0.4731,0.738989,0.251893,-0.556984,0.209057
0.136662,1.38448,2.75733,0.195486,-0.224156,0.0682678
-0.38625,0.705991,3.03864,0.18703,-0.291638,-0.0263605
-3.13578,0.461643,2.61644,-0.0433636,0.102415,-0.203434
-0.151491,-0.0193285,1.91487,0.0571629,0.641741,-0.044428
0.377652,0.149923,0.583402,0.155221,0.616489,-0.0945634
0.646073,-0.0432192,-1.01702,0.351905,0.67486,-0.193935
2.33951,-0.702667,-2.32486,0.447519,0.221168,0.0881574
0.336284,-1.42366,-3.16321,0.102968,-0.189219,0.141852
0.107376,-0.605761,-2.85098,0.019347,-0.380309,0.193467
0.897523,-0.266634,-0.998596,0.296548,-0.429281,0.387545
-0.43333,0.409142,1.25074,0.383947,-0.595606,0.294511
-0.424154,1.51176,3.22025,0.383005,-0.181541,-0.0580774
0.85396,1.21312,2.80814,0.145488,0.0592536,-0.08153
-0.615671,0.785812,1.54998,-0.234381,0.281611,-0.351396
-1.24954,0.0382064,0.744711,-0.24062,0.401987,-0.3279
-1.21731,-0.324741,0.286683,0.133719,0.603977,-0.142082
1.11215,-0.211747,-1.28343,0.277168,0.593971,-0.347246
2.273,-1.74213,-3.01927,0.569056,-0.000654072,0.276381
-0.704456,-1.70934,-3.2721,0.0255537,-0.326958,0.237308
-0.587781,-0.788133,-2.3748,0.0671976,-0.457921,0.366602
0.373131,-0.197752,-0.319336,0.197303,-0.57305,0.351219
-0.389922,0.929208,2.40466,0.411486,-0.427027,0.25003
-1.34428,1.048,3.34055,0.948876,-0.0829513,-0.0759149
-1.24557,0.537871,2.43177,-0.153533,0.113874,-0.314524
-0.284286,-0.0902279,1.63063,-0.343044,0.460717,-0.195296
-0.552674,-0.253133,0.596423,-0.105476,0.510384,-0.0279337
-0.667442,0.481809,-0.665268,0.0798759,0.596267,-0.0179455
1.5411,0.550823,-1.78252,0.309791,0.455355,0.00086391
0.830158,-0.461259,-2.98063,0.511933,-0.119296,0.181803
1.71708,0.119027,-3.67556,-0.0661286,-0.261756,-0.00485718
2.85438,-0.312266,-3.03385,0.244156,-0.599768,0.346726
-1.03788,-0.0839987,-0.0197808,0.379784,-0.592173,0.397838
-1.6103,0.475347,2.56116,0.367766,0.0105096,0.256082
-0.643999,0.130543,3.10765,0.174089,-0.157536,0.0547302
-3.37902,-0.645195,3.02124,-0.0341494,0.0106582,-0.0276817
-1.5663,-0.195189,2.13936,-0.119467,0.406623,-0.149342
0.693333,0.243045,2.04882,-0.0067966,0.424926,-0.0342208
-0.141691,0.342121,0.31417,0.417302,0.701196,0.0501523
1.99948,0.348809,-2.26457,0.329832,0.592624,0.0202205
1.20538,-0.74853,-3.99559,0.350596,-0.0796703,0.0905539
0.378468,-0.506553,-4.03124,0.184403,-0.352858,0.10979
0.850401,-0.653655,-2.42905,0.336462,-0.619848,0.256169
-0.487577,-0.155961,0.604584,0.267889,-0.72285,0.282293
-0.661033,0.918638,3.57366,0.165918,-0.256858,0.0723674
0.902549,1.16814,3.98819,0.456451,-0.0264505,-0.0413487
-0.882923,0.978049,2.63328,-0.00744748,0.124639,-0.159893
-1.74503,0.274475,1.25311,-0.0295199,0.502971,-0.235888
-0.907628,-0.010016,0.194987,0.112101,0.761552,-0.176681
-0.346153,-0.151036,-1.4036,0.50121,0.547824,-0.12466
0.994215,0.112011,-2.50293,0.543043,0.309596,0.0404859
2.94854,-0.418138,-3.67174,0.258097,-0.225273,0.0547165
0.142004,-1.04918,-2.90032,0.0870981,-0.577179,0.202235
-1.30495,-0.917694,-0.417109,0.0820366,-0.655807,0.221539
-1.4989,-0.272949,2.90406,0.488116,-0.481295,0.230215
0.909044,0.859502,4.03295,0.452411,0.100066,-0.360637
0.244667,0.683834,1.63828,-0.0733248,-0.0520605,0.0380669
-2.91421,0.203395,1.02803,-0.291574,0.0709879,-0.00258732
-0.639036,-0.332254,1.1287,-0.154263,0.762139,-0.0805793
0.868519,-0.118491,0.0175003,0.209853,0.667565,-0.212478
0.204102,0.214394,-1.71696,0.0548506,0.478575,-0.20174
2.01496,-0.581476,-2.79805,0.492354,0.157019,0.191342
0.854113,-0.891726,-3.56859,0.0799109,-0.476521,0.267552
0.46524,-0.196084,-2.3779,0.0199018,-0.631934,0.148223
-0.172029,-0.079567,0.446073,0.255531,-0.555554,0.278815
-1.15814,0.325147,2.99549,0.368224,-0.443949,0.128226
-0.253721,0.913073,3.62224,0.498136,-0.0214636,-0.110507
0.40657,0.505198,2.17961,0.038996,0.260281,-0.106135
-0.856352,0.352226,0.89694,-0.297198,0.319924,-0.182495
-0.738712,-0.104724,0.476171,-0.127881,0.608157,-0.173481
-0.110937,0.0945348,-0.756828,0.0722306,0.558376,-0.127011
-0.234454,0.159758,-1.99605,0.100256,0.394379,-0.0760219
1.93517,-0.256698,-2.80686,0.410937,-0.000904009,0.042358
1.18096,-0.451843,-2.93983,0.0421285,-0.408539,0.091993
0.351134,-0.656173,-1.64025,0.0393345,-0.593691,0.211707
-0.694142,-0.708699,0.856351,0.218353,-0.534793,0.301882
-0.833197,-0.200587,3.03644,0.423958,-0.275196,0.185392
0.269139,0.789896,3.04804,0.519148,-0.0159039,-0.0873944
0.409297,0.707674,1.90479,-0.108083,0.238521,-0.110302
-0.281903,0.459257,1.26702,-0.261552,0.396275,-0.258415
-0.260001,0.0733613,0.509935,-0.0614957,0.593584,-0.230536
-0.0385349,0.223073,-1.13348,0.114285,0.491304,-0.0847554
0.202389,0.0915122,-2.34869,0.275647,0.382108,-0.0351803
2.05789,-0.610125,-3.27849,0.437771,-0.103334,0.0890473
0.370404,-0.763634,-3.21864,0.130028,-0.503372,0.17593
0.0503089,-0.672828,-1.51946,0.0997429,-0.625548,0.224985
-0.665745,-0.289981,1.46917,0.198938,-0.570087,0.262615
-0.51518,0.480147,3.94888,0.402039,-0.0879308,0.0930874
1.6794,1.17211,2.93438,0.495703,0.0553801,-0.120176
0.0753514,1.10203,1.26098,-0.275254,0.10511,-0.184889
-1.33649,0.398317,0.781594,-0.187981,0.34655,-0.324892
-0.672233,0.107261,0.170544,0.0396516,0.587963,-0.356874
-0.646939,-0.603442,-1.23724,0.85115,0.40741,-0.0886958
0.252231,-0.110011,-2.72649,0.204318,0.146802,-0.162241
1.16268,-0.996578,-2.9182,0.218662,-0.223898,0.0634257
0.0542687,-0.768909,-2.09578,-0.0459093,-0.505847,0.115906
-0.422938,-0.58031,-0.12964,0.0379557,-0.538202,0.250321
-0.762225,0.161434,2.39971,0.210717,-0.353602,0.155927
0.17521,0.696863,3.56329,0.269144,0.105786,0.00178647
1.55403,0.948738,1.59019,0.134955,0.112674,-0.137844
-0.873661,0.62344,0.828881,-0.290667,0.13559,-0.178684
-0.768201,0.0797214,0.873402,-0.0844316,0.529967,-0.312424
0.646965,-0.130368,-0.147783,0.219834,0.615949,-0.291598
1.18465,-0.497896,-1.78452,0.32982,0.358679,-0.144652
1.36399,-0.726671,-2.42023,0.45747,-0.0784768,0.0931214
-0.00302709,-1.03505,-2.20966,-0.0619818,-0.247791,0.08685
-0.0592406,-0.780872,-1.65486,-0.072296,-0.462973,0.292377
-0.62147,-0.36207,-0.0292264,0.216169,-0.507099,0.237784
-0.922057,0.243034,2.56954,0.438577,-0.336181,0.195363
1.28981,1.16643,3.17871,0.326562,0.168481,-0.246344
0.992754,0.873537,1.1035,-0.196025,0.00615776,-0.0144721
-1.79709,0.263381,0.387559,-0.284828,0.0822985,-0.151154
-1.33214,0.0267951,0.295741,-0.199177,0.450933,-0.250492
-0.430141,-0.0291227,-0.136444,0.244604,0.461754,-0.166139
-0.179876,-0.0621923,-1.22404,0.0679754,0.326509,-0.237818
1.04996,-0.65203,-2.02122,0.342466,0.0608341,0.0245056
0.322724,-0.687514,-2.46819,-0.0921725,-0.302976,0.0666927
-0.188709,-0.652145,-1.40082,-0.123689,-0.434077,0.136524
-0.554484,-0.448184,0.845574,0.222523,-0.410772,0.226887
-0.377423,0.087047,2.78841,0.566777,-0.113099,0.0965274
1.16056,1.11329,2.0599,0.271246,0.00751254,-0.16035
0.786442,0.641731,1.01234,-0.259726,0.0773257,-0.0354942
-1.03103,0.169558,0.211538,-0.314737,0.159331,-0.222047
-0.863373,0.0685215,-0.0735231,-0.0190231,0.373499,-0.211313
-0.680012,0.181756,-0.602453,0.0723778,0.263783,-0.110934
3.20025,0.106413,-0.470976,-0.0241728,0.40584,-0.150392
1.12612,-0.876361,-1.38162,0.256897,0.00395171,0.0924118
-0.878288,-0.922073,-2.12178,-0.169043,-0.209152,0.179801
-0.121969,-0.765522,-1.45539,-0.0255944,-0.301239,0.199513
-0.703761,-0.460029,0.116411,0.283075,-0.403373,0.25609
-0.560692,0.45014,2.0428,0.0857529,-0.107724,0.0418043
1.38351,0.953748,1.9389,0.340835,-0.0406245,-0.0626346
0.241752,0.869129,1.31227,-0.326569,0.0169826,-0.207502
-0.787427,0.285541,0.668993,-0.205549,0.153823,-0.257054
-1.40044,-0.0337518,0.461489,0.122956,0.315532,-0.25268
-0.733437,-0.100343,-0.0676684,0.49951,0.415986,-0.114888
1.51456,-0.321857,-1.15404,0.325064,0.302254,0.00268638
0.895577,-0.874345,-2.16032,0.0672308,0.159958,0.10945
0.838839,-0.482588,-2.95266,-0.113294,-0.229595,0.201912
0.0114912,-0.410509,-1.79803,0.12656,-0.429839,0.215277
-0.630729,-0.0812068,0.535198,0.19372,-0.407279,0.173905
-0.458184,0.655188,2.06109,0.185486,-0.297374,0.0438001
-0.597191,0.473452,2.52972,0.236778,-0.137061,-0.0546628
-1.80904,0.125767,2.32123,-0.190613,0.0631094,-0.119898
-1.51104,-0.0845167,1.92625,0.00210929,0.465218,-0.0699828
-0.173852,0.0290133,0.843906,0.234405,0.83403,-0.15145
0.778264,-0.09275,-1.17965,0.39108,0.624414,-0.230136
1.77259,-0.621408,-2.52195,0.436285,0.263909,0.0730858
0.477177,-1.0502,-3.33391,0.20264,-0.165554,0.0349378
0.757303,-0.559589,-3.03901,0.105385,-0.408142,0.167653
0.287196,-0.702502,-1.28118,0.275076,-0.618749,0.33868
-1.05091,0.0354623,1.70923,0.342153,-0.4704,0.286702
-0.0390363,1.08559,2.80244,0.16783,-0.25502,0.0462166
-0.238934,1.13424,3.04605,0.199429,0.061081,-0.033451
-1.10666,0.814495,2.47218,-0.0978077,0.253627,-0.239458
-0.591875,0.314885,1.65144,0.0629109,0.639807,-0.341429
0.00743433,-0.0138476,-0.374235,0.164087,0.682105,-0.242007
-0.0580698,-0.486688,-2.02003,0.037901,0.556757,-0.251319
1.82164,-0.936195,-2.31031,0.408476,0.214694,0.0539448
0.960418,-1.15796,-3.05147,0.0779591,-0.259543,0.195951
0.313038,-0.761541,-2.65579,0.118016,-0.417413,0.34512
-0.0318321,-0.292085,-0.679223,0.328757,-0.553358,0.361914
-0.563591,0.537495,1.90653,0.398609,-0.455783,0.277241
0.37723,1.54688,2.88114,0.30417,-0.261316,-0.0302168
-0.485231,0.907636,2.86069,0.0560402,0.0507793,-0.0731311
-1.29126,0.555155,1.91651,-0.125462,0.289901,-0.211801
-1.33746,0.213883,0.99221,0.149645,0.605172,-0.194506
0.226484,0.542617,-0.320395,0.169823,0.699535,-0.236943
1.3295,-0.150912,-1.82576,0.107303,0.456018,-0.149473
0.620393,-1.54406,-2.86005,0.318333,0.00420892,0.112143
-0.571577,-0.698108,-3.41491,-0.037141,-0.302478,0.124016
0.592817,-0.437779,-1.8694,0.144582,-0.444512,0.280344
0.0158171,-0.0582628,0.49687,0.327468,-0.592222,0.367382
-0.168855,0.778587,2.50264,0.210334,-0.247296,0.112599
0.708546,1.30599,2.71513,0.495873,-0.197497,-0.0192253
-1.41841,0.836978,2.36723,-0.194809,0.0390011,-0.192334
-1.38328,0.432599,2.0409,-0.000438511,0.530356,-0.245376
0.182147,0.243142,0.666491,0.222682,0.810545,-0.377452
0.293482,-0.634184,-1.3051,0.740151,0.591008,-0.285401
1.16366,-1.35302,-2.72249,0.646906,0.239189,0.0599692
-0.115618,-1.77599,-3.86564,0.258166,-0.236215,0.203889
0.629802,-0.832672,-3.4886,0.200425,-0.409015,0.309286
0.704211,-0.21523,-1.61399,0.281687,-0.655614,0.402104
-0.652638,0.899139,1.594,0.207772,-0.599395,0.387289
-0.379109,1.46513,3.45153,0.0989139,-0.244158,0.0542227
-0.691206,1.33358,3.83585,0.42497,0.104382,-0.211948
-1.32582,0.631056,2.54521,-0.0886151,0.326335,-0.205868
-0.612428,0.125143,1.26047,0.0711474,0.759763,-0.227472
-0.013573,0.00837419,-0.50374,0.205154,0.788627,-0.19679
-0.0598656,-0.413206,-2.14873,0.284971,0.554002,-0.201849
1.69654,-0.68328,-3.11803,0.495417,0.147046,0.0632923
1.11738,-0.962086,-3.37055,0.198537,-0.325512,0.1609
0.617869,-0.573458,-2.47851,0.0684872,-0.521856,0.267037
0.322509,-0.123118,-0.417221,0.402447,-0.590456,0.362888
-0.22306,0.625315,2.1829,0.438414,-0.557429,0.241866
-0.491908,1.17154,3.50215,0.276576,-0.209473,0.092139
-1.97925,0.681089,3.38544,0.227899,0.207079,-0.0250314
-1.10424,0.561587,2.01013,-0.136857,0.536471,-0.197674
-0.274009,0.444555,0.806648,0.0261836,0.707991,-0.241129
-0.0592384,0.397664,-0.869707,0.215326,0.650572,-0.232058
0.780296,-0.293617,-2.42522,0.146816,0.435295,-0.159937
1.23907,-1.36201,-2.94118,0.46908,0.0107477,0.0979156
0.125579,-0.756974,-3.17899,-0.0228539,-0.351338,0.155455
0.943973,-0.506535,-1.94029,0.0316027,-0.480136,0.366186
-0.052295,-0.262495,0.350494,0.383751,-0.600476,0.433524
-0.848686,0.705706,2.68114,0.331403,-0.286664,0.251989
0.889898,1.77541,3.06535,0.376906,-0.100797,-0.0536423
-0.492058,1.25262,2.2227,-0.0604297,0.0469324,-0.136997
-1.63772,0.67085,1.34392,-0.113031,0.37182,-0.354352
-1.01707,-0.0583592,0.60626,0.116498,0.625197,-0.279828
-0.454499,0.0786311,-0.833859,0.295952,0.523995,-0.131092
0.807365,-0.118486,-1.83434,0.222706,0.434482,-0.0597079
1.77768,-0.762152,-2.37144,0.249439,0.130675,0.0942026
1.16991,-0.6442,-2.98777,0.0051384,-0.288727,0.197636
0.487796,-0.698788,-2.12452,0.165465,-0.455505,0.336887
-0.340713,-0.225421,0.0468022,0.283365,-0.51279,0.358166
-0.369012,0.870013,2.16474,0.124603,-0.290888,0.157669
0.570526,1.49848,2.78068,0.423907,-0.20177,-0.0335641
-0.551933,1.1333,2.3771,-0.0728525,-0.0549131,-0.17303
-1.43904,0.295207,1.63878,-0.111972,0.481675,-0.392416
-0.974443,-0.0751662,0.787096,0.212767,0.718271,-0.294856
0.293878,-0.158925,-0.747246,0.653293,0.476755,-0.119848
1.45746,-0.488346,-2.31244,0.308143,0.398791,0.0377674
0.498048,-0.882662,-3.42253,0.210952,-0.0695199,0.10327
0.573576,-0.280826,-3.14087,0.0831792,-0.313289,0.182272
1.01673,-0.138471,-1.56631,0.136021,-0.570588,0.278271
-0.329092,0.32614,0.871314,0.217943,-0.591678,0.251218
-0.39588,0.929197,3.01153,0.152604,-0.229211,0.0684238
0.281912,0.992805,3.02755,0.448047,0.0117572,-0.135773
-1.91813,0.543334,2.21554,-0.0966124,0.0905486,-0.140258
-1.45676,0.111633,1.72111,-0.000557542,0.629673,-0.216459
0.123555,0.078401,0.504933,0.226605,0.745874,-0.163812
-0.212642,-0.449032,-1.32316,0.628522,0.559329,-0.175761
1.44794,-0.541275,-2.65297,0.452328,0.282527,0.0354532
2.1256,-1.00336,-3.32376,0.223732,0.079144,0.055386
1.54462,-0.953248,-3.01855,0.0964362,-0.361448,0.350427
0.0328329,-0.496404,-1.42877,0.180836,-0.587205,0.407367
-1.06009,0.236515,1.22602,0.450306,-0.524557,0.389269
-0.0902813,1.57796,2.74136,0.137005,-0.263851,-0.0230326
-0.0373927,1.29616,2.88015,0.168813,-0.0545407,-0.0617096
-1.55712,0.786827,2.33819,-0.107075,0.0983716,-0.23058
-1.22404,0.0450547,1.62198,0.0967681,0.572708,-0.296407
-0.0205607,-0.0823988,0.11759,0.207513,0.759366,-0.238038
0.0193606,-0.202127,-1.74806,0.0853481,0.512368,-0.260866
1.15641,-1.00722,-2.89678,0.534203,0.187961,0.0598849
0.633129,-0.840111,-3.4661,0.0633485,-0.278595,0.109549
0.669962,-0.601611,-2.67366,0.0365767,-0.495583,0.22867
-0.191541,-0.326552,-0.300299,0.27903,-0.651031,0.320491
-1.28242,0.211511,2.71263,0.445337,-0.492071,0.260382
0.212614,1.20877,3.71397,0.509477,-0.148143,-0.094304
-0.606672,0.67673,2.70787,-0.0805245,0.111977,-0.0903431
-1.71178,0.407879,1.81225,-0.178268,0.413677,-0.148592
-0.52376,0.270842,0.92971,0.0979526,0.787675,-0.197432
0.307121,0.633373,-0.920082,0.236485,0.583669,-0.155594
1.13735,-0.0478944,-2.25132,0.240935,0.47133,-0.117643
1.43239,-1.14872,-3.06044,0.357174,-0.00628045,0.0512621
0.520151,-0.843997,-3.29341,0.00334501,-0.37561,0.216236
0.329714,-0.766824,-2.00501,0.0782818,-0.538346,0.296929
-0.245627,-0.168499,0.262613,0.33471,-0.588675,0.337927
-0.18922,0.942602,2.82417,0.280125,-0.23074,0.102537
0.980717,1.44401,2.95886,0.435375,-0.12964,-0.0412869
-1.43065,0.968962,2.09067,-0.0937782,-0.0760297,-0.110958
-2.08206,0.37916,1.72237,-0.0418776,0.447964,-0.27774
-0.446335,0.099037,1.0636,0.229608,0.723525,-0.260111
0.0857454,-0.0349783,-0.818282,0.553072,0.584923,-0.182429
1.53841,-0.454994,-2.14247,0.349166,0.432387,-0.0126821
1.44705,-1.15949,-3.10306,0.326405,-0.0473424,0.128805
-0.12531,-0.606647,-3.45336,0.0983456,-0.38517,0.166877
0.577704,-0.329953,-1.91182,0.151844,-0.519209,0.212389
-0.265976,0.134987,0.930486,0.227924,-0.599228,0.252447
-0.338077,0.779706,3.06934,0.131774,-0.217763,0.0346202
0.172115,0.894927,3.2062,0.413678,-0.0471194,-0.0551282
-1.24418,0.560075,2.30664,-0.165899,0.143317,-0.148169
-1.19604,0.132699,1.66318,0.0752243,0.603256,-0.160565
-0.225341,0.135578,0.0641217,0.271572,0.804113,-0.244595
0.1764,-0.360195,-1.66525,0.321612,0.641026,-0.23374
2.98694,-0.672176,-2.9295,0.612963,0.153178,0.396596
-0.536111,-0.402821,-3.74684,0.0928103,-0.353099,-0.0706858
1.25787,-0.0394062,-2.23169,-0.0253386,-0.347432,0.0572653
1.47222,-0.453379,-0.026135,0.297711,-0.60194,0.244886
-1.87225,-0.238797,2.11822,0.404345,-0.560519,0.233311
-1.3341,0.245752,3.33405,0.339451,-0.129727,0.033389
-0.881103,-0.0598713,2.85265,0.0451679,0.152499,0.0611447
-1.1955,0.139579,1.93239,-0.270011,0.371204,-0.00830227
-0.655403,0.267745,1.54466,0.0310099,0.719393,-0.065123
0.631531,0.832863,-0.320762,0.245064,0.831894,-0.120591
0.765827,0.277615,-2.57963,0.0959277,0.474095,-0.235071
1.62503,-0.859044,-3.47936,0.508344,0.100779,-0.0077244
1.15359,-1.02286,-3.9021,0.187602,-0.434728,0.120124
0.373469,-0.920946,-2.1577,0.203556,-0.611837,0.22703
-0.611547,-0.870501,0.60663,0.270615,-0.664874,0.39034
-1.62128,0.11626,3.07311,0.271713,-0.310319,0.332412
-0.117401,1.29272,3.93336,0.666299,-0.00674456,-0.122836
0.680073,1.51939,2.56726,-0.175302,0.153755,-0.228836
0.0385218,1.04759,1.8777,-0.0243081,0.470302,-0.400831
-0.67454,0.127369,0.673648,0.344597,0.657299,-0.45316
-0.914279,-0.31453,-1.06809,0.584671,0.642515,-0.362137
1.32102,-1.02321,-2.80845,0.50234,0.348138,-0.157174
0.144511,-1.59289,-3.50152,0.1912,-0.163555,0.0958875
-0.0431211,-0.918665,-2.86659,0.0797733,-0.295729,0.155403
1.31588,-0.403335,-1.40748,0.253025,-0.515337,0.340867
-0.248671,0.365878,0.418337,0.289005,-0.646147,0.355925
-0.848034,1.35068,2.55408,0.192968,-0.356201,0.0780047
0.240413,1.2057,3.19589,0.245613,-0.0268548,-0.0691044
-1.47957,1.17106,2.79969,-0.00412226,0.106815,-0.213162
-1.0976,0.390766,2.06575,-0.0256068,0.640051,-0.391829
-0.663803,-0.0897384,0.528717,0.356601,0.838823,-0.228474
0.161284,-0.236216,-2.24414,0.0963786,0.588594,-0.21937
1.14936,-0.953561,-3.36834,0.408096,0.276647,0.144693
0.161218,-0.791839,-4.16481,0.0978744,-0.39198,0.116511
0.392849,-0.099447,-2.73244,0.0611843,-0.489277,0.149415
0.79988,0.120219,0.27748,0.299252,-0.59804,0.223609
0.428744,0.561591,2.6751,0.488763,-0.432725,0.185801
-0.0115609,1.36381,3.09563,0.422061,-0.202611,-0.0149449
-1.20529,0.761304,2.5555,-0.0284075,0.218229,-0.0561558
-0.653563,0.684194,1.45863,-0.282893,0.518374,-0.273628
-0.359427,0.333626,0.252521,0.0407541,0.544058,-0.238341
-0.330224,0.191325,-1.08735,0.537821,0.464484,-0.198596
0.520642,-0.208949,-2.3776,0.180467,0.198481,-0.135991
1.00344,-1.10919,-2.63279,0.284832,-0.116361,0.0890806
-0.340125,-0.656381,-2.6664,-0.0778573,-0.502456,0.13463
-0.279969,-0.263645,-1.0169,-0.0425509,-0.539277,0.147128
-0.445943,-0.0975005,1.68137,0.186464,-0.510579,0.189256
-0.691434,0.402182,3.88142,0.296528,0.0663567,0.128227
0.394607,0.698448,2.12169,0.528818,0.107477,-0.143297
-1.05779,0.514698,0.872706,-0.257484,0.192972,-0.229814
-1.34956,-0.137155,0.605524,-0.225078,0.408323,-0.242831
-1.49546,-0.0332911,0.0732839,0.0694028,0.474394,-0.148502
-0.423657,-0.275551,-1.16801,0.5763,0.512532,-0.221066
1.44825,-0.447508,-2.78713,0.498459,0.0769614,0.0159777
-0.288013,-0.969562,-3.36721,0.116025,-0.391987,-0.0370197
-0.410918,-0.712892,-2.02737,-0.0822757,-0.526454,-0.011133
0.388568,-0.540592,0.332575,0.0468935,-0.295201,0.0687249
-0.0724019,0.115114,2.47738,0.140535,-0.166254,0.0836705
-1.54773,0.587974,2.85771,0.23823,-0.155764,0.0194519
-1.89001,-0.488911,2.02254,0.126266,0.153571,-0.0378679
-1.87665,-0.333312,1.21277,-0.312812,0.236959,0.0517095
-1.70536,-0.133037,0.973847,-0.16171,0.442819,0.0965146
-0.526824,0.586087,0.389158,0.152904,0.584207,0.0938051
1.20816,0.679885,-0.810166,0.227025,0.595162,-0.174749
2.87418,0.0821781,-2.25314,0.384041,0.269014,-0.149964
0.955385,-1.26222,-2.81468,0.133285,-0.315908,-0.00828969
-0.723011,-1.09819,-1.97582,-0.0602291,-0.349922,0.0908102
-0.172252,-0.956365,-0.0471951,0.195156,-0.430423,0.228616
-1.0862,-0.309656,2.25411,0.402083,-0.343959,0.287465
-0.641662,0.624472,2.7412,-0.00757968,-0.0361182,0.0414096
0.029729,0.457965,1.88576,-0.0321501,0.143962,0.0810525
-1.51485,0.382486,1.42638,-0.268477,0.240945,-0.0506731
-1.45326,0.22155,1.04942,-0.0599773,0.544756,-0.109401
-0.0341404,0.56599,0.104787,0.231978,0.636055,-0.147724
1.14564,-0.0593615,-0.864372,0.549053,0.675584,-0.191799
2.25933,-0.61329,-2.55651,0.260002,0.175827,0.0716109
-0.126438,-1.41668,-3.03463,0.110182,-0.275166,0.230745
-0.646817,-0.622366,-2.28419,-0.0562757,-0.366043,0.184562
0.773622,-0.298187,-0.155834,0.194327,-0.456248,0.282544
0.0408552,0.35129,1.97411,0.33089,-0.396512,0.292609
0.571652,0.928169,2.84207,-0.0535762,0.0484108,-0.0106864
0.835068,0.847136,1.82001,0.173316,0.0674634,0.0923363
-1.7205,0.537951,1.05491,-0.170691,0.191781,-0.166465
-0.721043,0.210822,0.729561,-0.190165,0.509519,-0.21957
-0.317139,0.0493985,0.222469,0.180389,0.516135,-0.164079
-0.0798362,-0.117218,-0.882474,0.579755,0.456685,-0.126836
1.98995,-0.203481,-1.67016,0.238778,0.339367,-0.0451343
1.34241,-1.19347,-2.4237,0.161243,-0.129251,0.186135
-0.480546,-0.93145,-2.42581,-0.034375,-0.323286,0.284676
-0.234175,-0.465546,-1.0026,0.12424,-0.395766,0.327735
-0.192433,0.13921,0.93394,0.35679,-0.354458,0.293626
0.379385,1.11477,2.56769,-0.0642381,-0.0887413,0.0603275
1.23515,1.20998,2.40787,0.245084,0.0918081,-0.0437056
-0.749454,0.893293,1.26246,-0.284804,0.0495263,-0.226434
-1.55384,0.0623655,0.993446,-0.112139,0.484888,-0.338663
-0.884596,-0.441336,0.343192,0.20263,0.600954,-0.103625
-0.823562,-0.109491,-1.0616,0.450923,0.413992,-0.019707
1.31822,0.133769,-2.1343,0.234966,0.351482,-0.00125229
1.738,-0.624598,-3.13963,0.289917,-0.174079,0.21508
0.0256875,-0.314027,-2.8179,0.0229616,-0.415051,0.183379
0.276245,-0.151604,-0.845661,0.0997259,-0.497384,0.21456
-0.1642,0.145174,1.9127,0.240869,-0.398801,0.190174
-0.141781,0.695255,3.11764,0.110901,-0.0420248,-0.0144558
0.257207,0.487852,1.97082,0.217088,-0.00588623,-0.00256157
-1.98785,-0.0574754,1.30138,-0.259266,0.159392,-0.0775709
-1.84578,-0.306953,1.02787,-0.143838,0.49636,0.00250179
-0.75371,0.192174,0.435734,0.12049,0.620907,0.0524203
0.447287,0.525878,-0.634655,0.613363,0.601612,-0.0450046
3.0703,0.576727,-1.57501,0.193968,0.464778,-0.121479
2.51777,-1.31746,-2.57342,0.294434,-0.107598,0.129426
0.942854,-1.03358,-2.79271,-0.123375,-0.351786,0.163026
-0.19261,-0.615856,-0.809148,0.104056,-0.404645,0.341482
-1.05719,-0.0630687,1.55919,0.293108,-0.360329,0.374375
0.0217763,1.08463,2.28127,-0.0491185,-0.0289322,0.0502635
0.868563,0.949154,1.53206,0.145393,-0.0407221,0.0840018
-1.7117,0.526277,1.10203,-0.209594,0.0334195,-0.125347
-1.18418,0.136828,0.975116,-0.209037,0.362972,-0.220952
-0.940783,-0.00558313,0.886133,0.193529,0.4372,-0.101641
-0.323678,-0.334999,-0.301811,0.547588,0.587693,-0.12064
2.08684,-0.0921886,-1.51453,0.170451,0.40061,-0.0375884
1.93166,-0.90033,-1.9116,0.028293,0.0282702,0.133254
-0.386313,-0.941309,-2.52476,-0.0145367,-0.266012,0.289037
-0.290828,-0.556517,-1.73731,0.138464,-0.340151,0.313702
0.247978,0.013087,0.470561,0.274031,-0.390328,0.24284
0.039809,0.809797,2.1143,0.0431775,-0.191925,0.106266
0.732793,1.08922,2.15675,0.247664,-0.0291239,-0.103725
-1.24334,0.518177,1.56007,-0.257852,-0.0381036,-0.0693002
-1.90414,0.0526456,1.3918,-0.101326,0.394811,-0.144957
-0.797606,0.165,0.759485,0.227391,0.576272,-0.101589
0.211836,0.128754,-0.594498,0.655,0.527966,-0.13921
2.06492,-0.04353,-1.79806,0.180178,0.372393,-0.0886183
1.24669,-1.26019,-2.74522,0.147747,-0.130469,0.12507
-0.749656,-0.994748,-2.69886,-0.0483924,-0.321951,0.223691
0.0103563,-0.434914,-1.09484,0.0832456,-0.392114,0.311214
-0.0862187,0.317571,1.57425,0.40174,-0.410305,0.322635
0.926947,1.2396,2.71637,0.0530365,0.0308624,-0.121521
1.09861,1.00983,1.50902,0.155037,-0.0677085,0.0859349
-1.64193,0.447784,0.838898,-0.240892,0.0540111,-0.234796
-1.33001,-0.0630563,0.838037,-0.194736,0.353797,-0.181422
-0.757925,0.107815,0.451225,0.127096,0.494719,-0.252082
-0.0417196,0.0435122,-0.581004,0.526646,0.39542,-0.107514
1.22834,-0.243423,-1.62895,0.115207,0.261721,-0.0950835
0.548637,-1.14693,-2.4227,0.20706,-0.122559,0.156765
-0.572538,-0.697585,-2.50674,-0.069264,-0.337643,0.183303
0.817803,-0.227763,-0.791854,-0.0599989,-0.383794,0.148846
-0.128672,0.286369,1.42685,0.32773,-0.395793,0.254814
-0.294652,0.666386,3.03605,0.359418,-0.0544507,0.081751
1.25611,0.896753,1.66527,0.214137,0.0418668,-0.0224215
-1.23806,0.353502,0.853843,-0.216008,0.0924581,-0.125635
-1.35532,0.00508438,0.698601,-0.272659,0.388423,-0.152518
-0.215526,0.0924682,0.461904,-0.0472674,0.473174,-0.131917
-0.390377,0.289356,-0.642669,0.492549,0.361883,-0.0190817
0.691464,0.213833,-1.82411,0.0333963,0.303447,-0.168081
1.872,-0.455978,-1.94997,0.153047,0.0483775,0.0530363
0.441803,-0.716961,-2.15236,-0.0503504,-0.305832,0.124243
0.311888,-0.395939,-1.27773,-0.0174299,-0.358656,0.200374
-0.311593,-0.325867,0.649095,0.310648,-0.404306,0.289892
-0.935236,0.160691,2.51125,0.541233,-0.174588,0.173978
0.898839,0.993673,1.9582,0.0804645,0.0176334,-0.145621
-0.438063,0.311498,1.00242,-0.220365,0.00673056,0.0147039
-2.19386,-0.034864,0.70427,-0.267115,0.203154,-0.0409127
-1.00054,0.0859742,0.684449,-0.108866,0.45388,-0.0986494
0.0937652,0.483669,0.119688,0.323974,0.437723,-0.039175
0.532196,0.262356,-1.02261,0.229916,0.404882,-0.202636
2.23705,-0.166314,-1.68978,0.0887178,0.176903,-0.0911843
0.69624,-1.07225,-1.80079,0.00101566,-0.212801,0.0699638
-0.36659,-0.715318,-1.56348,-0.0817808,-0.271058,0.183409
-0.0248501,-0.399166,-0.214798,0.223588,-0.304198,0.278096
-0.0912932,0.200922,1.44891,0.523518,-0.256357,0.28041
1.11952,1.11788,1.61097,-0.131098,0.0328493,-0.0759699
0.665474,0.795456,0.904048,-0.00385082,-0.0544434,0.0274392
-1.2567,0.285768,0.594577,-0.285198,0.0444959,-0.214291
-0.945862,-0.101184,0.580086,-0.137977,0.208892,-0.151995
-1.11026,-0.133191,0.5316,0.148541,0.313344,-0.0958019
-0.456088,-0.170638,0.169952,0.675046,0.482911,-0.151241
1.72551,0.0870355,-1.19437,0.0487072,0.257267,-0.0995656
1.2128,-0.941647,-2.02621,0.0152209,-0.00614023,0.143268
-0.408429,-0.897115,-2.30716,-0.0846968,-0.223839,0.19906
-0.315443,-0.449861,-1.23058,0.00412148,-0.332417,0.244168
0.213682,0.209128,0.775808,0.293749,-0.334404,0.190107
0.121915,0.769791,2.48455,0.227163,-0.135805,0.0978562
0.961047,1.03691,1.66646,0.263675,-0.0358245,-0.0907145
-1.01909,0.501196,1.10907,-0.204293,0.059774,-0.203542
-1.18209,-0.0411034,0.627964,-0.214931,0.295422,-0.203282
-0.637397,-0.11577,0.314226,-0.0103328,0.351899,-0.183756
-0.497329,0.0859477,-0.335106,0.118882,0.345057,-0.0915796
0.248111,0.161538,-0.767663,0.129489,0.438126,-0.21423
1.86779,-0.460676,-1.58454,0.165859,0.110717,0.0674715
-0.0861937,-0.898606,-2.40959,-0.0965866,-0.267342,0.115649
-0.549527,-0.575794,-1.87705,-0.0229636,-0.345048,0.160515
-0.378289,-0.257204,0.180421,0.242324,-0.393152,0.185173
0.120072,0.53918,2.55335,0.471612,-0.191775,0.077477
1.21525,1.04286,2.12467,0.0784897,-0.0324559,-0.117742
-1.38637,0.0986044,1.02055,-0.160766,-0.0513506,0.0215
-2.10312,-0.0672351,0.557372,-0.249879,0.30667,-0.110219
-0.342641,0.150147,0.403354,-0.208004,0.375545,-0.162376
-0.00954739,0.10109,-0.0171173,0.272538,0.371509,-0.028199
0.733866,0.0183309,-0.596101,0.357794,0.471232,-0.193551
2.20181,-0.449786,-1.32159,0.191573,0.144863,0.0557324
0.466146,-1.08732,-1.96823,0.0475602,-0.109897,0.243648
-0.437859,-0.368296,-2.2872,-0.0824081,-0.178911,0.247864
0.749908,-0.0968794,-1.11028,-0.00335485,-0.283464,0.278637
0.482315,0.103982,0.627912,0.215871,-0.404758,0.360259
-0.294149,0.541839,2.06243,0.32746,-0.21919,0.206415
0.510484,1.46865,2.18658,0.148637,-0.0660593,-0.0444645
0.493839,0.8438,1.59758,-0.0436414,0.161454,-0.184455
-0.766228,0.378724,0.820186,-0.203048,0.213955,-0.224792
-0.812253,-0.267644,0.130783,-0.0666039,0.425816,-0.22819
-0.335192,-0.13049,-0.641876,0.150853,0.355529,-0.0888138
-0.491549,-0.309589,-1.11462,0.380973,0.299771,-0.0605862
1.9627,-0.0348888,-1.78782,0.247836,0.118485,-0.0312757
0.766478,-0.718051,-2.02506,0.0390222,-0.338766,0.191995
-0.464718,-0.458322,-1.24711,-0.0833993,-0.34128,0.176224
0.153807,-0.215076,0.0667461,-0.0242096,-0.391791,0.190107
-0.746156,0.0523286,1.71133,0.291175,-0.31262,0.240791
-0.66677,0.61942,2.28491,-0.016089,0.079588,-0.0646864
0.615729,0.614649,1.33241,0.107434,0.0911021,-0.00691533
-1.23426,0.353677,0.955359,-0.239761,0.170605,-0.220474
-0.891707,0.0471767,0.535523,-0.174103,0.402932,-0.223849
-0.346448,0.134707,0.124574,0.100284,0.441006,-0.198208
0.0447683,-0.108161,-0.53696,0.706068,0.423294,-0.0815079
2.06879,-0.0444031,-1.68479,0.103173,0.264475,-0.108422
1.28956,-1.09825,-2.36041,0.222065,-0.19126,0.174493
-0.817998,-0.785849,-2.38635,-0.0383187,-0.348755,0.185873
0.308215,-0.331369,-1.00678,0.00595224,-0.388404,0.179196
-0.0664793,0.118132,1.15144,0.290728,-0.447513,0.261959
-0.198517,0.490914,2.91361,0.3867,-0.111668,0.106129
0.8648,0.880505,1.97803,0.254175,-0.00152457,-0.0995647
-0.883104,0.333606,1.23567,-0.111036,0.124085,-0.0827327
-1.03408,0.0570156,0.602237,-0.219248,0.426337,-0.19488
0.0709276,-0.00561003,0.0864459,-0.047154,0.417995,-0.125585
-0.645096,0.062795,-0.81097,0.133313,0.301414,-0.0348161
0.504525,0.0338275,-0.996662,0.113144,0.420867,-0.131713
1.68738,-0.312804,-2.01035,0.26958,0.0349228,0.0917431
0.51515,-0.624769,-2.54588,0.0114538,-0.307531,0.117505
0.334014,-0.417699,-1.49548,-0.0590951,-0.433155,0.190681
-0.0763605,-0.183311,0.417198,0.19324,-0.473346,0.24773
-0.699763,0.0683494,2.34071,0.521242,-0.268821,0.242099
0.153348,0.966442,2.55605,0.0109065,0.122452,-0.180603
-0.0924203,0.456613,1.0594,0.0392064,-0.0100405,0.0321674
-1.97523,-0.0812066,0.56328,-0.224376,0.167235,-0.140363
-1.52057,-0.228273,0.346905,-0.2725,0.330293,-0.0799502
-0.9787,0.11691,0.0582149,0.129459,0.344734,-0.0435736
-0.196372,0.442453,0.248149,0.50122,0.45335,-0.100016
2.57603,0.519645,-0.836064,0.104774,0.353043,-0.207824
1.29093,-0.879344,-1.79447,0.107026,-0.0755511,0.0404547
-0.796466,-0.794033,-2.17039,-0.0978242,-0.243436,0.103154
-0.0991218,-0.431235,-0.871968,0.00194252,-0.235589,0.147937
0.593109,-0.040291,0.637808,0.234574,-0.293811,0.232326
0.254394,0.621161,1.84494,0.178776,-0.060587,0.148942
1.66821,1.02115,0.899925,0.188105,-0.0563629,0.0129739
-0.256242,0.637447,0.553305,-0.193397,-0.0446579,-0.151769
-0.390127,0.207993,0.475454,-0.181905,0.204411,-0.32336
0.0820668,-0.124028,0.17807,-0.0822009,0.128249,-0.232996
-1.16604,-0.287678,0.126379,0.223891,0.195382,-0.0138986
0.389471,-0.0737719,-0.270921,-0.12261,0.368751,-0.123905
2.04841,-0.600696,-0.945098,0.117728,0.156581,0.162037
1.12321,-0.733202,-2.59418,0.047885,-0.00915128,0.297537
0.0750958,-0.401972,-2.38763,-0.0530766,-0.240665,0.280278
-0.0620064,0.188015,-0.422824,0.187154,-0.31314,0.20142
-0.0975809,0.701426,1.77792,0.449718,-0.324149,0.180211
0.161947,0.890138,1.68472,0.177541,-0.265708,-0.0603015
-1.49811,0.228902,1.56739,-0.00499773,-0.151951,-0.0336789
-1.84705,-0.0628721,1.32865,-0.237356,0.166453,-0.104254
-1.49013,-0.163102,0.976981,-0.163057,0.259063,-0.0695883
-1.047,0.0189837,0.227407,0.176193,0.465215,0.000977397
0.244831,0.331203,-0.262336,0.389352,0.529015,-0.0852743
2.82685,0.362712,-1.28499,0.112468,0.347884,-0.110786
1.41727,-0.993717,-2.3948,0.144996,-0.214655,0.0790728
-0.923504,-0.897162,-2.55805,-0.0238539,-0.369093,0.150411
-0.13442,-0.548732,-0.884161,0.0137899,-0.398916,0.184418
-0.0327796,0.110071,1.44223,0.288321,-0.396204,0.183594
-0.247434,0.441095,3.11247,0.350122,-0.0679908,0.108954
1.13492,0.750918,1.90295,0.222061,0.000963718,-0.0208269
-1.17966,0.311747,0.823342,-0.195607,0.17185,-0.145646
-1.01114,0.0351815,0.342829,-0.254727,0.399435,-0.143389
-0.187597,0.210135,-0.0452074,-0.0870282,0.381096,-0.130018
-0.127258,0.411966,-0.663853,0.297321,0.293148,-0.0342287
0.929728,0.123998,-1.17195,0.131298,0.308288,-0.215678
2.43998,-0.545477,-1.57438,0.252964,0.0531151,0.0233121
0.0373373,-1.12345,-2.0444,-0.00372642,-0.35105,0.169257
-0.269215,-0.489912,-1.51436,-0.0843175,-0.353978,0.212237
0.402771,-0.127478,0.176088,0.104323,-0.406076,0.246029
-0.373543,0.522829,2.15094,0.383929,-0.327144,0.252841
0.313275,0.889766,2.75801,0.0327951,0.127895,-0.112726
0.547102,0.618848,1.25947,0.121214,0.122394,-0.0208514
-1.38323,0.11688,0.475529,-0.246986,0.203433,-0.15965
-0.56078,0.032292,0.106267,-0.242312,0.377037,-0.161002
-0.391665,-0.0179892,-0.474008,0.0593314,0.261915,-0.0931457
-0.814264,0.359155,-0.618002,0.280805,0.183212,-0.0455151
1.41356,0.372378,-0.645005,-0.0886406,0.32251,-0.159189
3.20175,-0.418665,-1.41956,0.27091,0.184381,0.0326202
0.418417,-1.36999,-2.9752,0.0597926,-0.445458,0.252328
-1.48501,-0.908615,-2.02051,-0.0625269,-0.38901,0.225494
0.283526,-0.357301,0.0339592,0.232041,-0.338568,0.205705
-0.23425,0.525087,2.28073,0.419729,-0.195253,0.189846
0.280973,1.20659,2.49513,0.0714483,-0.223127,-0.0254915
-1.2119,0.312049,2.20259,0.0322647,0.028497,-0.0307488
-1.76806,0.126152,1.3352,-0.205516,0.233812,-0.108817
-0.389393,0.122321,0.962153,-0.0434957,0.454343,-0.135648
-0.389901,0.133431,-0.014484,0.20846,0.489623,-0.0757065
0.166664,0.0796714,-1.19482,0.177854,0.470787,-0.175951
1.83541,-0.426146,-2.01227,0.266854,0.190658,0.0135767
0.642446,-0.784478,-2.804,0.0118725,-0.271496,0.0893291
0.137419,-0.511561,-2.1121,0.0378327,-0.403142,0.22194
0.11661,-0.0679391,-0.10851,0.199628,-0.468586,0.212078
-0.187009,0.45115,2.16919,0.489879,-0.334811,0.147651
0.539984,1.2139,2.50994,-0.0795543,-0.074267,-0.0883567
0.102844,0.364564,1.64837,0.0217817,0.00326076,0.000247419
-2.46535,0.0679388,0.730358,-0.269573,0.12068,-0.0959215
-0.952143,0.0975111,0.580906,-0.163696,0.47341,-0.11165
0.167995,0.511281,0.0578095,0.0404423,0.38145,-0.171939
0.0599113,0.105193,-0.696423,0.624311,0.357363,-0.167554
1.46335,-0.10916,-1.71763,0.0175562,0.156357,-0.116637
0.725351,-0.988862,-1.75101,0.092312,-0.145427,0.0956659
-0.0990203,-0.54673,-1.55717,-0.0978366,-0.254887,0.155194
0.659819,-0.200712,-0.664414,-0.0519372,-0.323698,0.248723
0.0670776,0.196242,0.671696,0.256982,-0.355385,0.277763
-0.344218,0.655096,2.05403,0.458358,-0.121394,0.119145
1.20145,1.04027,1.24316,0.0676055,-0.0400928,0.0109193
-0.664711,0.531154,0.677469,-0.0967215,-0.112332,-0.134679
-1.40148,-0.0814895,0.648766,-0.307015,0.187374,-0.246336
-1.14314,-0.371605,0.39946,-0.156322,0.266395,-0.170826
-0.947357,-0.357813,-0.181134,0.131192,0.326688,-0.000839591
-0.515205,0.19573,-0.483337,0.469982,0.295713,0.0279452
1.81468,0.475197,-0.928382,0.056288,0.226213,-0.054311
1.99792,-0.475238,-1.91626,0.159966,-0.109062,0.0538898
-0.166158,-0.843019,-2.42308,0.080548,-0.404635,0.162694
-0.323053,-0.565688,-0.889033,-0.0116329,-0.379898,0.154224
0.407202,-0.135797,0.917659,0.14329,-0.406202,0.218419
-0.951163,0.423772,2.67509,0.405776,-0.286531,0.251416
-0.0858237,0.434153,2.87699,0.00498295,0.2823,-0.124716
0.731492,0.395195,1.11096,0.0830989,0.221961,0.00337684
-1.46292,0.190833,-0.0284898,-0.227585,0.234816,-0.214016
-0.322303,0.121147,-0.29088,-0.157639,0.461922,-0.171579
0.670652,0.082052,-0.83823,-0.054055,0.212277,-0.146593
-0.81155,-0.160987,-1.18624,0.131892,0.054857,0.00742483
-0.908103,0.130335,-0.787826,0.231616,0.172269,-0.0541029
2.26199,0.386465,-0.775479,0.244527,0.0977315,-0.0692177
1.57113,-0.379408,-1.66739,0.0699403,-0.352441,0.109996
-1.09153,-0.558636,-1.46572,-0.0774053,-0.489486,0.139498
-0.799133,-0.291804,0.367105,-0.0512122,-0.335825,0.0491942
0.248361,0.0775082,2.48844,0.345571,-0.0639265,0.0582811
0.573445,0.0794289,2.50567,0.3375,0.246544,0.0187751
-0.535274,0.000213283,0.0980207,-0.0939531,0.255207,-0.192445
-2.55758,-0.493553,-0.922444,-0.218928,0.175887,-0.0555789
-0.266111,-0.0416296,-0.50117,-0.259273,0.100954,-0.151891
0.831734,0.369333,0.414869,-0.163144,0.026401,-0.147764
0.24331,0.39124,1.08137,0.195005,0.193831,-0.0454601
1.14833,0.234873,0.628479,0.360649,0.526725,-0.216132
3.19297,-0.316956,-1.29311,0.199831,0.252708,0.0683426
0.299642,-1.24704,-2.35781,-0.0108331,-0.246512,0.155734
-1.20185,-0.841929,-2.24853,-0.0387949,-0.284146,0.245384
0.166075,-0.239975,-0.730119,0.142564,-0.383031,0.206478
-0.00289068,0.485261,1.5959,0.387344,-0.359899,0.233964
0.410619,1.08357,2.44833,-0.0904053,-0.0347193,-0.115568
0.45559,0.626298,1.8136,0.140644,-0.00779638,0.057216
-1.43174,0.3252,1.07553,-0.158986,0.148308,-0.162408
-0.092331,0.182602,0.742769,-0.160944,0.414405,-0.189714
0.397881,0.122577,0.226798,0.0968233,0.410361,-0.184081
0.0866602,-0.0275409,-0.843981,0.443533,0.273836,-0.0742596
1.10555,-0.261558,-1.6699,0.0099383,0.211593,-0.102793
1.06889,-1.063,-1.84861,0.188933,-0.137475,0.220715
-0.67405,-0.772172,-1.83566,0.0419207,-0.320564,0.297848
0.160838,-0.192506,-1.07555,0.00996262,-0.361681,0.251309
0.369257,0.117613,0.429727,0.2213,-0.446534,0.277931
-0.768989,0.17918,2.15809,0.515726,-0.268702,0.264079
-0.192757,1.03098,2.04681,-0.0692396,-0.0261827,-0.137076
-0.194446,0.524369,1.27546,0.0776015,0.0873107,-0.0744325
-2.07079,0.125411,0.779539,-0.193,0.15125,-0.167225
-0.749974,0.122911,0.532348,-0.183987,0.477475,-0.257692
0.0458418,0.193967,-0.0282067,0.0496302,0.378127,-0.178856
-0.392351,0.349218,-0.621705,0.415545,0.249611,-0.066346
0.943663,0.204875,-1.34338,-0.0475326,0.237105,-0.214543
1.72455,-0.678888,-1.8198,0.304445,-0.0321399,0.0084641
-0.0609713,-1.03543,-2.45563,0.0517423,-0.379308,0.149217
-0.612998,-0.656154,-1.43658,-0.0158792,-0.472263,0.182398
-0.174285,-0.183647,0.790781,0.189857,-0.428181,0.163119
-0.329001,0.191824,2.85842,0.497517,-0.156203,0.240911
0.710195,1.09055,2.29769,0.0464993,0.0587084,-0.148022
-0.683135,0.388898,1.17301,-0.0296034,0.110859,-0.0653098
-1.43728,0.0494093,0.351819,-0.268015,0.295759,-0.198845
-0.445597,-0.0126191,0.128354,-0.169307,0.368061,-0.199864
-0.189139,0.0153043,-0.285424,0.246681,0.319863,-0.100762
-0.281609,-0.0100581,-0.779229,0.405298,0.296783,-0.127558
1.97914,0.0893111,-1.00861,0.094075,0.286123,-0.119108
2.42001,-0.811321,-1.50435,0.105452,-0.0638419,0.155806
-0.405105,-0.929561,-1.92659,-0.0695782,-0.302878,0.257331
-0.0610661,-0.548076,-1.09011,-0.00559074,-0.304736,0.282896
-0.351452,-0.00447978,0.547486,0.318002,-0.359697,0.230568
-0.157436,0.781389,2.274,0.227084,-0.146353,0.0678257
0.982101,1.0852,1.79763,0.254199,-0.0822518,-0.0287177
-1.25576,0.451456,1.26983,-0.131276,-0.0356175,-0.149529
-1.62955,-0.00732502,0.810899,-0.247082,0.286813,-0.172265
-0.770502,0.0438102,0.492181,-0.101354,0.40088,-0.128994
-0.273394,0.469574,-0.161541,0.256068,0.424353,-0.0592196
0.929384,0.0936849,-1.40468,0.0957868,0.351093,-0.190949
1.83736,-0.620582,-2.02597,0.287438,0.0304969,0.0458387
0.290576,-0.900832,-2.30133,-0.0118721,-0.312561,0.13216
0.258034,-0.57656,-1.35798,-0.0632842,-0.379053,0.202629
-0.0102182,-0.348433,0.0894228,0.1285,-0.484967,0.321804
-0.807099,0.284706,2.01195,0.389396,-0.329992,0.28046
0.157897,0.860035,2.7918,-0.0524697,0.0953332,-0.089994
0.816533,0.789047,1.5767,0.174607,0.145148,-0.00477433
-1.44635,0.371048,0.409531,-0.248146,0.148356,-0.164291
-0.953972,0.0357901,0.10263,-0.184559,0.40607,-0.204616
-0.185616,0.0420992,-0.233232,0.0900767,0.345731,-0.155897
-0.588417,-0.0343733,-0.7674,0.615379,0.208387,-0.0416808
1.16432,0.293383,-1.33565,-0.103962,0.174346,-0.187538
2.2697,-0.5909,-1.3589,0.157891,0.0135123,0.0646389
0.382625,-0.849647,-1.70192,-0.0324594,-0.291771,0.156494
-0.0549762,-0.502243,-1.14488,-0.0575619,-0.310102,0.237938
-0.00411775,-0.144216,0.200308,0.223101,-0.397486,0.304802
-0.842784,0.326234,1.92073,0.459891,-0.276942,0.236183
0.426145,1.14612,2.18835,-0.0850638,0.0662003,-0.190201
-0.0821372,0.570782,0.9871,-0.000326872,-0.0692105,0.0402685
-2.06579,0.12745,0.725051,-0.271576,0.154657,-0.176983
-0.49287,-0.0480747,0.600658,-0.122599,0.413338,-0.2004
-0.230981,0.110176,0.192466,0.144813,0.383667,-0.189286
0.0218006,0.075704,-0.474144,0.572821,0.366146,-0.0948017
1.30627,0.107954,-1.63415,-0.0285226,0.174361,-0.13785
1.37993,-0.837897,-1.88204,0.185192,-0.0388764,0.0396899
0.291646,-0.740314,-2.13676,-0.018242,-0.30979,0.174528
0.061971,-0.548645,-1.3621,0.0145773,-0.429138,0.265573
-0.459493,-0.00741255,0.65501,0.327167,-0.414529,0.220217
-0.488475,0.691578,2.69431,0.234843,-0.192523,0.0992554
0.893238,1.00887,2.08948,0.138475,-0.0383313,0.0585777
-1.26711,0.463769,0.975878,-0.105238,0.0299965,-0.115619
-1.5284,0.18527,0.425386,-0.28581,0.292218,-0.196693
-0.829829,0.0425761,0.37123,-0.0989223,0.335344,-0.179476
-0.123077,0.0703483,0.0659849,0.246877,0.474029,-0.155288
0.9617,-0.0128618,-0.623907,0.0955889,0.468619,-0.257539
2.28611,-0.82927,-1.44384,0.259749,0.151046,0.058006
0.231227,-1.20508,-2.22052,0.00596815,-0.205752,0.127261
-0.0301812,-0.817738,-1.95903,0.0433257,-0.294557,0.275247
0.288408,-0.415283,-0.747759,0.26162,-0.459494,0.362883
-0.900459,0.355521,1.53889,0.39419,-0.341992,0.263086
0.841375,1.5586,2.45434,-0.157058,-0.0785228,-0.0922352
1.19265,1.00909,1.73374,0.0932003,0.0382168,-0.0042696
-1.51243,0.4799,0.931047,-0.211661,0.051117,-0.216981
-1.09102,-0.198644,0.36968,-0.086933,0.370281,-0.216607
-0.820285,-0.269177,-0.142775,0.166587,0.341753,-0.0592134
-1.60944,0.0755734,-0.643725,0.402909,0.243738,0.0412922
2.06615,0.731965,-0.592546,-0.0901487,0.441002,-0.188795
3.61721,-0.406183,-1.43412,0.114017,-0.00861827,0.181926
0.170106,-1.03289,-2.1225,-0.0462774,-0.367883,0.20601
-0.355428,-0.567783,-1.49175,-0.00212359,-0.294436,0.216411
0.253951,-0.158231,0.23769,0.248294,-0.39666,0.284679
-0.58322,0.457596,2.01701,0.444066,-0.251625,0.198691
1.06724,1.1289,1.77737,0.160496,-0.0341959,-0.129454
-0.926194,0.299776,0.804059,-0.0760108,-0.177952,-0.0195471
-2.70399,0.0125929,0.740502,-0.266901,0.0481574,-0.0702342
-0.805905,-0.0721592,1.3529,-0.105333,0.457494,-0.212988
-0.0592394,0.0637325,0.58553,0.158524,0.404989,-0.0963249
-0.543811,0.0278093,-0.619124,0.36846,0.500537,-0.0942948
2.09738,0.070876,-1.72604,0.142934,0.318119,-0.0737088
1.3176,-0.755325,-2.33583,0.0901674,-0.159091,0.0398233
0.141933,-0.680548,-2.2328,0.0570161,-0.328132,0.150713
-0.0928533,-0.522366,-1.06262,0.172907,-0.43367,0.229869
-0.632485,-0.090077,0.955132,0.403898,-0.407787,0.140002
-0.888405,-0.0700488,2.5236,0.157183,-0.153739,-0.0269367
-0.0396864,0.0614238,1.71711,0.157876,-0.0929712,-0.0316983
-1.71635,-0.17446,1.10013,-0.246398,0.0561149,0.00384831
-1.3683,-0.0239269,1.20304,-0.172676,0.328386,0.0275545
-0.212023,0.350139,1.2028,-0.0450017,0.480555,-0.0204681
0.268382,0.878681,0.0632749,0.398727,0.47989,-0.0549399
1.39142,0.591237,-1.3378,0.0706544,0.454456,-0.242391
3.53984,-0.245354,-1.73676,0.23114,0.275595,-0.0899036
1.58151,-1.34091,-2.33959,0.0838006,-0.285846,0.0712154
-0.401417,-1.20453,-2.17588,0.0256963,-0.349521,0.246824
-0.233106,-0.921279,-0.78276,0.341067,-0.410989,0.377426
-0.694936,0.147819,1.35937,0.47569,-0.373508,0.282234
0.377348,1.24876,2.21528,-0.0804984,-0.209463,-0.0142388
-0.00112608,0.6762,2.05196,0.0766025,-0.052485,0.0113404
-1.57745,0.410077,1.29025,-0.199564,0.055045,-0.151292
-0.838603,0.15697,1.03182,-0.125967,0.33177,-0.199697
-0.434603,0.221241,0.698494,0.24439,0.460512,-0.152993
0.0913231,-0.0118495,-0.422033,0.486486,0.530693,-0.252357
1.89399,-0.411686,-1.66171,0.212451,0.277221,-0.0485336
0.531915,-1.19381,-2.36371,0.0839761,-0.133006,0.0808873
-0.321487,-0.824672,-2.38532,0.00341582,-0.285833,0.223791
0.201352,-0.48655,-1.22308,0.0415308,-0.41645,0.25981
-0.260643,0.100503,0.756557,0.307838,-0.450576,0.28579
0.168884,0.811753,2.67356,0.292491,-0.156186,0.0908331
1.571,1.36787,2.42946,0.291879,0.0402726,-0.0904466
0.31024,0.804332,1.54585,-0.106816,0.109333,-0.252709
-1.0613,-0.0728044,0.873281,-0.17808,0.33553,-0.270855
-0.164956,-0.330539,-0.130308,-0.149226,0.483718,-0.185399
-0.859819,-0.185605,-1.23756,0.170787,0.259858,0.0785928
-1.05017,0.0558446,-1.90975,0.236458,0.311703,-0.0589035
2.67717,0.314133,-2.2554,0.262709,-0.00656295,0.00799978
1.32645,-0.387828,-2.3136,0.0960765,-0.493931,0.176675
-0.227543,-0.297346,-1.33383,0.00339758,-0.538364,0.157622
-0.0727934,-0.00848482,0.819937,0.14557,-0.514869,0.149106
-0.211707,0.313519,2.86234,0.463514,-0.206267,0.148429
-0.509874,0.440268,2.52384,-0.0749764,0.0534053,-0.145261
-1.46708,0.0699169,1.0685,0.101366,0.0455149,-0.000528038
-1.78158,-0.222718,0.353358,-0.273092,0.298349,-0.101603
-1.0524,-0.0856948,0.224848,-0.200694,0.266102,0.00834543
-0.775077,0.448955,0.0471955,0.114702,0.356623,-0.0537813
0.0592854,0.699779,-0.319923,0.493899,0.324877,-0.152205
1.84471,0.644299,-0.731711,-0.0809386,0.239826,-0.28021
1.95747,-0.72311,-1.35281,0.107175,-0.0460337,-0.0266144
-0.546764,-1.2854,-2.06371,0.0213327,-0.36669,0.102289
-1.30117,-1.18534,-1.36521,0.109465,-0.344951,0.227396
-0.963731,-1.4296,0.206115,0.407875,-0.458937,0.304053
-1.63725,-1.002,1.9285,0.298813,-0.297658,0.241338
-0.934722,0.387273,2.57708,0.0514017,-0.0968484,-0.0856444
-1.26057,0.149091,2.4524,-0.077854,0.149304,0.117409
-1.82723,0.225229,1.76491,-0.0817636,0.473387,0.00753188
-0.0198648,0.594372,1.0641,-0.0168723,0.724341,-0.111362
1.20668,0.675991,0.0114724,0.244493,0.769876,-0.227007
2.22035,-0.0943225,-1.45954,0.292473,0.60187,-0.225559
3.9851,-0.620919,-1.90147,0.287252,0.222946,0.143887
1.72549,-1.09608,-2.16007,0.110482,-0.139513,0.285943
-0.711999,-1.03004,-2.10018,0.0429745,-0.302723,0.389825
-0.0212047,-0.337572,-1.03577,0.165601,-0.399142,0.372899
0.617779,0.744308,0.951197,0.379024,-0.373077,0.248376
1.3329,1.63536,1.96846,-0.143744,-0.137462,-0.0315703
1.64019,1.42636,1.70172,0.197905,-0.0510147,0.0240662
-0.562248,0.808378,1.03825,-0.142787,-0.00557229,-0.347718
-0.759049,0.0675343,0.623483,-0.182016,0.223755,-0.343421
-0.732584,-0.517377,0.290814,0.122107,0.287773,-0.170892
-1.34848,-0.3099,-0.445792,0.641931,0.272503,0.00749123
1.09964,0.210977,-1.45289,-0.0961852,0.213479,-0.0713485
1.49739,-0.511405,-2.04826,0.136532,-0.011453,0.100969
0.367448,-0.497435,-2.48957,0.00531512,-0.312579,0.160297
0.119679,-0.285899,-1.35718,-0.0202571,-0.433071,0.198868
-0.183661,0.0574909,0.626772,0.292115,-0.423177,0.183472
-0.656648,0.379581,2.5739,0.521883,-0.23557,0.131729
0.364764,0.928104,2.09978,0.129752,-0.12287,-0.157112
-1.48524,-0.0223788,1.42589,-0.0275272,0.00695249,-0.0664659
-2.33544,-0.360148,0.934478,-0.243984,0.251824,-0.0884537
-1.09205,-0.123246,0.724977,-0.16934,0.459334,-0.0600473
-0.110274,0.322403,0.0462294,0.20918,0.456125,-0.0236872
0.401809,0.369775,-0.741744,0.339345,0.467133,-0.165653
2.4455,0.128512,-1.60331,0.192798,0.25304,-0.135454
1.21803,-0.89254,-2.04683,0.253223,-0.111527,0.0261354
0.247259,-0.786409,-2.24988,0.0297902,-0.274449,0.178434
0.393275,-0.624744,-1.36678,0.0679081,-0.424235,0.228155
-0.704333,-0.533257,0.383976,0.287912,-0.519417,0.29709
-1.319,0.303744,2.29091,0.0578558,-0.251905,0.099192
0.48984,0.801968,2.71435,0.357046,-0.0271811,-0.0593401
-0.554333,0.78047,2.18597,-0.161712,0.0598001,-0.130217
-1.33027,0.26846,1.65644,-0.0478041,0.4404,-0.181991
-0.355619,0.382941,0.350494,0.199289,0.681115,-0.216718
0.179837,0.126774,-1.13419,0.55879,0.483247,-0.0809312
1.2204,-0.123796,-2.25374,0.214068,0.30089,-0.126551
1.38886,-0.991005,-2.69197,0.271352,-0.0982374,0.0670983
0.677267,-0.80458,-2.68088,0.0372748,-0.320732,0.141882
0.730658,-0.572777,-1.4353,0.0824399,-0.477979,0.307234
-0.310296,-0.0908235,0.666791,0.336778,-0.486101,0.363461
-0.470595,0.890909,2.45909,0.101712,-0.175643,0.00704229
0.907194,1.17292,2.44853,0.397758,-0.0856502,0.0307456
-0.486494,1.00932,1.74988,-0.0812832,0.0215006,-0.275947
-1.06759,0.234071,1.04115,-0.256288,0.22232,-0.250823
-0.957737,-0.125777,0.55668,0.0257345,0.437655,-0.191044
-0.628257,0.277272,-0.330444,0.417434,0.453804,-0.122304
0.654568,0.102909,-1.74768,0.0241786,0.310228,-0.238001
1.0122,-0.729341,-2.2709,0.241569,0.021405,0.0785606
-0.320786,-0.622786,-2.99885,-0.137759,-0.359777,0.116925
-0.667454,-0.304937,-2.1998,0.109381,-0.372172,0.114372
-0.414313,0.0536914,0.1868,0.180418,-0.421584,0.0579289
-0.342,-0.0242812,2.66424,0.422317,-0.392128,0.0223393
-2.09604,-0.385839,2.83844,0.324057,-0.148028,-0.130122
-2.07983,-0.903071,1.49882,0.0764595,0.145638,-0.0869644
-1.95781,-0.986801,0.707034,-0.374874,0.366706,0.105428
-0.686631,-0.620659,0.50107,-0.233056,0.391426,0.285026
0.326092,0.155939,0.335287,0.156487,0.429558,0.228256
2.27966,1.17868,-0.387369,0.269681,0.585542,0.176034
5.18278,1.11544,-1.69349,0.359512,0.222987,0.118764
2.23628,-0.268796,-2.87832,0.236502,-0.431023,0.0845944
-0.621689,-0.292481,-2.38776,-0.0559728,-0.495134,0.0676947
-1.58944,-0.378428,-0.643915,0.0323503,-0.592343,0.0766242
-3.44784,-1.15896,1.18124,0.455303,-0.57937,0.0533706
-2.16054,-1.94654,2.17093,0.217984,0.0703033,-0.120736
4.2306,-0.503358,1.90129,0.152867,0.437179,0.13575
3.24905,0.0560384,1.2807,-0.316202,-0.0397454,0.0679133
-1.88309,0.2364,0.798746,-0.379403,0.00472978,0.0052017
-0.642654,0.127019,0.482498,0.00789213,0.516361,-0.0324037
0.307948,0.527755,-0.237745,0.203025,0.338393,-0.0153176
0.908765,0.429448,-0.606677,0.135517,0.510642,-0.185837
4.15259,0.0261131,-1.39112,0.279525,0.293802,-0.0159719
1.46666,-1.18406,-2.49383,0.126152,-0.372362,0.112601
-1.50144,-0.961684,-2.44655,0.00723654,-0.446739,0.235939
-0.402866,-0.417581,-0.529168,0.156017,-0.421065,0.169438
-0.33548,0.367854,2.11574,0.358168,-0.413651,0.13592
0.531239,1.03504,2.84548,-0.00211233,-0.0502934,-0.0852082
0.373168,0.515177,1.76058,0.070588,-0.0114125,-0.0400906
-2.05468,0.111868,0.980548,-0.241461,0.103226,-0.0945948
-1.3939,0.0349622,0.658712,-0.223589,0.445039,-0.15596
-0.15408,0.195617,0.215702,0.155591,0.506924,-0.0909443
0.411725,0.113534,-0.664185,0.55163,0.516615,-0.210414
2.26173,-0.232804,-1.83244,0.414066,0.244137,-0.0477
0.528702,-1.17766,-2.90232,0.216704,-0.27401,0.0534655
-0.370934,-0.731707,-3.00047,-0.0018279,-0.433928,0.159853
0.166727,-0.380629,-1.1427,0.116098,-0.553471,0.18259
0.326781,0.267395,1.153,0.479484,-0.261971,0.256258
0.263146,0.704846,2.05383,0.135427,-0.0822417,-0.170565
-1.37352,0.471413,2.24474,0.154677,-0.22099,0.0045259
-2.84093,-0.376805,1.57483,-0.0819166,0.155021,-0.150807
-0.934391,-0.481613,1.10719,-0.247755,0.337865,-0.0339129
-0.631981,-0.048586,0.857632,-0.135607,0.344915,0.00952297
-0.287974,0.547519,0.422334,0.204765,0.457386,0.0501655
1.23612,0.517296,-0.929761,0.143404,0.601259,-0.186898
3.45755,0.19449,-2.53057,0.317385,0.256087,-0.00324321
0.405323,-1.07817,-2.87458,0.0575587,-0.379078,0.03862
-0.173945,-0.662738,-1.95951,-0.0069021,-0.367284,0.150349
0.568087,-0.289134,0.0399116,0.117447,-0.419071,0.216633
0.156311,0.408998,2.03291,0.438484,-0.344883,0.264667
0.283414,1.08706,2.55787,0.0271421,-0.0679135,-0.0378255
0.496779,0.715567,1.56635,0.129839,-0.00981647,0.0120053
-1.62715,0.455215,0.814314,-0.234129,0.0320645,-0.169094
-1.31355,0.098043,0.725917,-0.132086,0.351816,-0.212111
-0.344031,0.184996,0.168046,0.0545756,0.361343,-0.244288
-0.344056,-0.137426,-0.341649,0.714866,0.385067,-0.144163
0.917771,0.0827366,-1.56386,-0.0881251,0.154167,-0.194148
1.10614,-0.875059,-1.87214,0.151898,-0.0210662,0.0533324
-0.16915,-0.716611,-2.22198,-0.106203,-0.371539,0.152863
-0.404893,-0.419239,-0.867864,-0.0480462,-0.360169,0.19432
0.116173,0.0107077,0.880349,0.276092,-0.37789,0.242782
-0.468021,0.514777,2.38888,0.519744,-0.216954,0.168722
0.251743,0.936401,1.90805,0.0518432,-0.0114152,-0.158163
-1.14897,0.225025,1.33045,-0.100707,0.116202,-0.181423
-1.42213,-0.0628081,0.9349,-0.226418,0.385136,-0.199984
-0.0458608,-0.00935119,0.334963,-0.121318,0.504675,-0.215539
0.270294,0.0649056,-0.434685,0.205248,0.437492,-0.0699863
0.0754894,-0.114057,-1.45676,0.329902,0.333769,-0.0609634
2.15612,-0.045409,-2.22724,0.286661,0.0952048,0.0567366
1.0066,-0.524354,-2.33529,0.0938222,-0.324188,0.161885
0.432932,-0.269359,-1.53775,-0.0408838,-0.400588,0.1519
0.647788,-0.154682,-0.00767646,0.101216,-0.462295,0.219332
-0.319846,0.0822634,1.90503,0.369164,-0.3544,0.257334
0.0486509,0.683731,2.71346,0.0621324,0.074332,-0.0951935
1.43186,0.80872,1.48484,0.163359,0.0676771,-0.0149619
-0.798681,0.430949,0.734232,-0.236854,0.0715064,-0.21923
-0.953202,0.0808753,0.227343,-0.19428,0.340057,-0.198025
0.113876,0.17327,-0.230834,-0.0215874,0.366227,-0.204249
-0.393585,0.234583,-0.817571,0.325994,0.14856,-0.0215808
0.271965,-0.00621004,-1.39582,0.069575,0.266115,-0.226987
1.67556,-0.494381,-2.01031,0.288132,-0.111489,0.0635061
0.0612737,-0.663303,-2.18087,-0.0262449,-0.403487,0.0914577
-0.00706957,-0.371676,-0.98528,-0.0616407,-0.466471,0.142769
-0.0697456,-0.0146248,0.97384,0.114447,-0.43433,0.149406
-0.759661,0.307443,2.81545,0.487718,-0.238688,0.176553
-0.242118,0.430548,2.57725,-0.0308037,0.17273,-0.198498
-0.444044,0.164554,1.26296,0.0476023,0.1845,0.0031352
-1.90162,-0.0324103,0.395476,-0.281505,0.320733,-0.0914899
-0.243215,0.0940169,0.108112,-0.205711,0.509935,-0.0958536
0.248414,0.372351,-0.557495,0.0866938,0.334378,-0.0811089
-0.0700186,0.539385,-1.08117,0.49678,0.183467,-0.0633552
1.87463,0.299145,-1.40035,0.0988412,0.185001,-0.221788
1.71055,-0.784653,-1.83521,0.212201,-0.232731,0.0529879
-0.309972,-0.712416,-1.71716,-0.100189,-0.391995,0.0979767
0.150252,-0.330384,-0.51698,-0.0870596,-0.380274,0.159503
-0.0599186,0.0733286,1.18379,0.277621,-0.384091,0.206393
-0.603915,0.237334,2.49595,0.604512,-0.118219,0.198554
0.671796,1.02738,1.58422,0.0297995,0.0130732,-0.159459
-1.20833,0.127036,0.85754,-0.131931,0.0480849,-0.0858176
-1.72452,-0.142486,0.443867,-0.272639,0.292689,-0.17687
-0.335338,0.010948,0.211946,-0.15264,0.346956,-0.135097
-0.391094,0.194724,-0.397401,0.160163,0.299083,-0.0577028
0.384429,0.213002,-0.605101,0.345087,0.412892,-0.180538
1.93975,-0.0984891,-1.52147,0.253049,0.0711617,-0.0410713
0.60872,-0.766314,-2.20913,0.0964341,-0.27604,0.0565716
-0.200015,-0.513783,-1.69988,-0.00726151,-0.351725,0.0861792
0.254233,-0.205318,-0.423378,-0.00693256,-0.44205,0.141991
-0.346138,0.115939,1.60341,0.267463,-0.346002,0.104717
-0.521968,0.272355,3.01102,0.309964,0.00729492,-0.00265998
0.45922,0.338501,1.55584,0.234681,0.0360652,-0.0519849
-2.04659,0.00751287,0.561353,-0.177471,0.107655,-0.05393
-1.25519,0.00149222,0.515207,-0.233177,0.446741,-0.0930662
0.550958,0.373662,0.322963,-0.13188,0.4326,-0.143476
0.161708,0.496193,-0.635553,0.18917,0.27435,-0.0736475
0.543034,0.0738129,-1.33122,0.20372,0.325076,-0.210038
1.83811,-0.286508,-1.57405,0.122014,0.0181347,-0.00946307
-0.38188,-1.13639,-2.30019,0.214788,-0.171595,0.0451461
-4.67534,-0.731007,-3.85105,0.141732,-0.231852,0.131995
-0.975804,-0.294456,-2.44891,0.0572229,-0.230201,-0.137857
1.78828,-0.60307,0.634162,0.238577,-0.414354,-0.0147802
0.584293,-0.888294,3.15945,0.417813,-0.37581,0.222044
4.0383,1.14516,3.80561,0.0653479,-0.0609509,-0.0213387
2.8083,2.24997,2.2136,0.0613017,0.0642628,-0.00930548
-0.92473,1.53762,1.29393,-0.00229353,0.111987,-0.32989
-0.642587,0.224232,0.485071,0.0118383,0.499216,-0.607727
-0.276705,-0.673879,-0.434079,0.140134,0.401113,-0.30673
-1.50645,-0.825145,-1.33627,0.458731,0.245283,-0.0490963
-0.605631,-0.127991,-2.38984,0.0422162,0.175184,-0.0774623
1.20369,-0.231422,-2.72216,0.318246,-0.19473,0.185588
-0.142024,0.0567717,-2.2098,0.0306094,-0.446717,0.138115
0.890913,0.246147,-0.36836,-0.00709808,-0.451192,0.157368
0.961409,0.647327,1.2277,0.0261566,-0.484365,0.139797
0.144867,0.794072,2.93534,0.367387,-0.202555,0.089644
0.152927,0.550728,3.05769,0.487477,0.24087,-0.187231
-0.275482,0.32376,0.749707,0.120997,0.0623878,-0.103672
-2.82623,-0.48008,-0.0559668,-0.217546,0.214233,-0.0699242
-1.35824,-0.175811,-0.129372,-0.227265,0.443108,-0.0893739
0.515886,0.528714,-0.210261,-0.135159,0.282522,-0.176352
0.433666,0.692135,-0.254368,0.225466,0.232352,-0.170737
0.771037,-0.0546615,-0.787829,0.151417,0.208637,-0.255051
1.04022,-0.756859,-1.5024,0.165586,-0.028829,-0.0236288
-0.36969,-0.962307,-1.70294,-0.0465099,-0.281283,0.106348
-0.511376,-0.535555,-0.846139,-0.0484879,-0.261315,0.166312
0.35798,0.0797502,0.151057,-0.064437,-0.302786,0.130678
0.174533,0.485738,1.33158,0.247797,-0.222223,0.119287
0.0372955,0.795367,2.40819,0.298975,0.069135,-0.0818394
1.54341,0.733467,1.25924,0.0641941,0.164317,-0.216222
-1.04095,-0.213633,0.369957,-0.0794709,0.111881,-0.222533
-0.99311,-0.604026,-0.504529,-0.297408,0.28,-0.157055
-0.175777,-0.407342,-0.685449,-0.257556,0.174021,-0.0707034
-0.373261,0.00345098,-0.427083,0.144763,0.184763,0.0229415
0.505478,0.30464,-0.683241,0.632342,0.271561,-0.0719844
1.66407,0.321364,-2.22399,0.179982,-0.169316,-0.0629237
0.129823,-0.953444,-1.91696,0.175484,-0.411193,0.0698669
-1.28683,-0.677259,-0.972066,-0.152765,-0.53758,0.0551633
-0.751025,-0.404066,0.938554,-0.0766371,-0.391495,0.0586582
-0.674139,-0.12358,2.54504,0.267156,-0.225237,0.0804272
-1.8375,-0.293981,2.94566,0.735256,0.0204925,0.177213
-1.44222,0.100218,1.30238,-0.0834205,0.218164,-0.118295
-1.98344,-0.172818,0.0894347,-0.16424,0.25792,0.109932
-1.50175,0.146942,-0.103154,-0.394973,0.334099,0.0168576
-0.251839,0.688892,0.0379775,-0.214185,0.312737,-0.101326
0.760376,0.805294,-0.153444,0.197759,0.363419,-0.28321
0.581279,0.0130524,-0.631918,0.354378,0.318565,-0.32241
1.3472,-0.912547,-1.82612,0.39422,0.00266758,-0.111667
-0.639115,-1.5457,-2.51647,0.0840294,-0.375517,0.0488347
-1.30947,-1.17627,-1.68371,-0.0417261,-0.442986,0.158965
-0.3607,-0.487744,0.292009,-0.0216924,-0.468989,0.154644
-0.463648,0.214555,2.96888,0.470982,-0.27802,0.213234
0.438447,0.35078,3.06967,0.113451,0.2396,-0.185131
-0.517877,0.357078,1.37149,0.0473642,0.101005,-0.0256735
-2.52258,0.0447151,0.249479,-0.227939,0.285876,-0.154856
-3.9762,-0.378452,-0.469081,-0.238805,0.208152,0.0201278
-1.19626,0.114267,-0.330447,0.0137812,0.517569,-0.0196698
0.530967,0.584602,-0.00970235,0.480355,0.361141,-0.182825
2.21547,0.493104,-0.902435,-0.0993754,0.230928,-0.150349
1.80197,-0.574514,-1.35542,0.162375,0.0683486,0.0481899
-0.400774,-0.820154,-2.28094,-0.0582455,-0.188948,0.14657
0.0331517,-0.503019,-1.55269,-0.0971266,-0.248991,0.193254
0.578903,-0.107527,0.0505232,0.072438,-0.398192,0.238578
-0.368518,0.351991,1.5815,0.201107,-0.372416,0.21247
-1.50697,0.569254,2.54918,0.172409,-0.150747,0.0566331
-1.24919,-0.0641771,2.05849,0.19241,0.210547,-0.130788
-2.95501,-0.538948,1.0423,-0.310955,0.194806,0.0170447
-3.28422,-0.951885,0.551185,-0.174669,0.49448,0.12161
-0.108594,0.144355,-0.369309,0.00100851,0.624896,0.316701
0.974835,0.56838,-1.15224,0.573343,0.465312,0.187958
1.45892,1.42998,-2.41892,0.43444,0.236633,0.0794961
2.35448,0.99276,-2.82515,0.202467,-0.238137,0.103289
1.64495,0.234574,-2.38483,0.0958158,-0.600133,0.114157
0.33148,0.121733,-0.898534,0.106155,-0.598875,0.17977
-0.103644,-0.142527,1.731,0.162729,-0.568594,0.176855
-0.0887491,0.572064,4.15714,0.208749,0.00468665,0.0298422
2.01571,0.962733,3.06733,0.475605,0.259909,-0.206838
-0.874581,0.705287,1.20228,-0.169963,0.136073,-0.230264
-1.8832,-0.163702,0.459435,-0.241785,0.564016,-0.225411
-0.279344,-0.340173,-0.19265,-0.0679369,0.657661,-0.0957294
-0.84015,0.110817,-1.53858,0.0445005,0.245788,-0.00049901
0.580945,-0.0743587,-1.74895,0.228719,0.27004,-0.0401123
1.13497,-0.137356,-2.10547,0.384459,-0.0611493,0.0897319
0.955684,-0.0916893,-2.33508,-0.00745201,-0.314674,0.14892
0.537928,-0.25752,-1.44235,0.0461495,-0.483581,0.227377
-0.508421,-0.235463,0.333628,0.142303,-0.566298,0.201009
-0.902942,0.212663,2.91809,0.42524,-0.247497,0.15122
-0.341773,0.650654,3.17592,0.0747804,0.0558944,-0.0872856
-0.0211553,0.421777,1.93279,0.177395,0.328355,0.0554131
-0.815247,0.205747,0.834994,-0.166611,0.42386,-0.135244
0.244348,0.114883,0.03287,-0.208125,0.534966,-0.16165
0.632475,-0.198131,-0.426284,0.156927,0.523494,-0.0736601
0.509249,-0.247549,-1.2502,0.497729,0.318031,-0.00656617
2.68886,-0.319676,-1.84738,0.324662,0.244747,0.0603276
0.993509,-1.32395,-2.66992,0.297268,-0.382982,0.350425
-0.852793,-0.619403,-2.51793,-0.00815213,-0.444896,0.310871
0.534602,-0.00638754,-0.774073,0.0075525,-0.485053,0.298816
-0.479531,0.284108,1.19795,0.145573,-0.550666,0.292921
-0.742427,0.637822,2.995,0.390381,-0.00494969,0.0765147
1.51367,1.43558,2.63714,0.453499,0.121384,-0.146619
-1.42063,0.620286,1.83759,0.0295439,0.0933589,-0.221394
-1.52424,0.0423042,1.1347,-0.0356691,0.580119,-0.283487
0.223634,-0.0512306,0.325557,-0.200892,0.685582,-0.301412
0.566098,-0.367858,-0.99812,-0.0528873,0.519381,-0.0852966
-0.89139,-0.871946,-2.17881,0.481172,0.355677,0.00855231
0.650224,-0.252811,-2.97625,0.461693,-0.000118196,0.0998034
1.46325,-0.24914,-2.96896,0.167446,-0.372368,0.241834
0.247676,-0.287956,-1.86848,-0.0689335,-0.632237,0.315747
-0.025652,-0.241764,-0.00642711,0.0208667,-0.589606,0.262525
-0.670453,0.355176,2.04939,0.0995157,-0.363084,0.142334
-0.657264,1.01996,3.48219,0.335108,0.090855,-0.0172512
0.542736,0.974842,2.63543,0.376241,0.290087,-0.124434
-0.475846,0.554773,1.4334,-0.146266,0.333566,-0.297754
-0.483637,0.0853226,0.529303,-0.287853,0.519582,-0.321753
0.02236,-0.470653,-0.153278,0.0045023,0.565375,-0.185672
-0.819642,-0.771322,-1.41525,0.830273,0.358361,0.0243026
-0.674565,-0.147693,-2.6902,0.459316,0.17933,0.0895409
2.01619,-0.0338322,-2.9982,0.222853,-0.123732,0.0943264
1.21255,-0.197597,-2.31313,0.0675385,-0.535026,0.354391
0.0950884,-0.000870358,-0.862294,-0.0207437,-0.597601,0.261671
-0.239581,0.285055,1.23303,0.161498,-0.581125,0.210145
-0.352842,0.602657,3.82367,0.586201,0.0454043,0.0428959
0.180629,0.57999,2.6986,0.575933,0.0149368,-0.152871
-2.97731,0.0801085,1.35553,-0.21224,0.174704,-0.00749815
-1.53427,-0.0226555,1.24513,-0.221107,0.743461,-0.0764223
1.16223,0.175829,0.463292,-0.118369,0.734203,-0.16327
0.0994866,0.343521,-1.22672,0.219959,0.377516,0.000457406
-0.14552,0.102302,-2.44197,0.233727,0.364717,-0.0617619
2.31679,-0.34727,-3.12753,0.480156,-0.0456544,0.070989
1.0984,-0.692988,-2.82641,0.0594432,-0.4818,0.191436
0.288016,-0.706523,-1.14334,-0.0143714,-0.554421,0.266874
-0.362699,-0.460379,0.667918,0.140661,-0.609672,0.33966
-1.32151,0.232254,2.94525,0.635277,-0.247954,0.342131
0.793249,1.38361,3.15298,0.481288,-0.00426933,-0.142401
-0.176944,1.15771,1.82914,-0.0141898,0.108458,-0.0483834
-1.38281,0.633809,1.03416,-0.218471,0.363352,-0.285732
-0.146773,0.0608625,0.736933,-0.165264,0.671688,-0.41153
0.814876,-0.521071,-0.542103,0.21297,0.60728,-0.248285
-0.532134,-0.854454,-1.794,0.506438,0.311538,-0.0973653
0.407631,-0.895931,-2.50501,0.501171,0.109609,0.118589
1.50706,-0.734029,-2.90581,0.155917,-0.244933,0.18004
0.960993,-0.530351,-2.12067,0.0158517,-0.498247,0.345635
-0.0810295,-0.235172,-0.536628,-0.0314655,-0.601647,0.405549
-0.674178,0.447008,1.4184,0.0986805,-0.419088,0.239351
-0.358096,1.1266,2.89818,0.21092,-0.0649361,0.066726
-0.0371909,1.2123,2.56547,0.49389,0.144349,-0.0845556
-1.03841,0.765921,1.5966,-0.0472894,0.238263,-0.272634
-0.754357,0.244509,1.03584,-0.240582,0.500657,-0.385595
-0.281276,-0.24519,0.366592,0.0424461,0.611182,-0.237518
-0.272557,-0.591096,-1.35133,0.56767,0.438943,-0.114157
-0.0574477,-0.477061,-2.62913,0.386262,0.152536,0.0413504
0.769956,-0.606306,-2.87842,0.204981,-0.0977093,0.0699303
1.22789,-0.355242,-2.04922,-0.00285244,-0.39442,0.244747
0.462751,-0.224349,-0.831692,-0.0485215,-0.52308,0.33289
-0.671084,0.228918,0.708235,0.0696754,-0.532794,0.316281
-0.71495,0.782232,3.12238,0.704352,-0.246755,0.165606
0.702827,0.987615,2.67868,0.682709,0.10643,-0.229191
-1.00196,0.612295,1.11373,-0.125959,0.102781,-0.0881416
-1.55645,0.193607,0.901746,-0.296137,0.361149,-0.129121
0.0650579,0.200867,0.868238,-0.130852,0.713684,-0.334131
1.78982,-0.0860467,-0.580808,0.15619,0.634233,-0.147788
0.164776,-0.943474,-2.30901,0.254585,0.225725,-0.119555
0.618027,-0.892921,-3.13569,0.55326,0.21664,0.144832
1.43823,-1.09943,-2.97849,0.208228,-0.4044,0.363349
-0.331234,-0.554938,-2.0794,0.012867,-0.444589,0.355005
0.38783,0.24083,-0.573219,0.0942548,-0.573139,0.337594
-0.611638,0.794914,1.86726,0.193791,-0.450753,0.141944
-0.5515,1.16811,3.33739,0.176359,-0.0678188,-0.131233
-0.143397,0.837155,3.01305,0.294228,0.212011,-0.18748
-0.935695,0.407419,1.87818,-0.152641,0.247275,-0.125047
-1.77514,-0.0481258,1.23585,-0.0883802,0.550331,-0.171687
-0.116455,-0.0460003,0.114833,0.0494676,0.710888,-0.115867
-0.395657,-0.0194565,-1.31917,0.540305,0.449342,-0.0427065
0.805806,-0.193558,-2.62239,0.491452,0.22801,-0.00878084
1.25564,-0.610555,-3.26549,0.23206,-0.232382,0.0605364
0.829012,-0.579963,-2.44885,0.0166728,-0.497034,0.202659
0.0954871,-0.443988,-0.755784,-0.0153459,-0.614777,0.282763
-0.822546,0.0254798,1.59046,0.14677,-0.508023,0.224962
-0.957969,0.479692,3.49205,0.282706,0.027936,0.112903
-0.133113,0.925686,2.94306,0.491085,0.181273,-0.081796
-0.359014,0.635614,1.89809,-0.115937,0.357391,-0.205931
-0.292685,0.275222,1.08438,-0.222276,0.590585,-0.343364
0.0855232,-0.211836,0.0514899,-0.00488514,0.676339,-0.221394
0.0684386,-0.394068,-1.54152,0.462122,0.421242,-0.0926208
-0.249325,-0.701539,-2.80148,0.627858,0.205833,0.14378
0.935119,-0.402611,-3.6078,0.334278,-0.152747,0.104337
1.47802,-0.331123,-2.80917,0.143587,-0.482149,0.229514
0.376611,-0.299932,-1.33156,0.0322183,-0.711715,0.293196
-0.89145,0.0164688,1.2943,0.154145,-0.515719,0.281558
-0.737322,0.649814,3.13491,0.249966,-0.0375456,0.0119549
-0.872931,0.885556,2.88713,0.375427,0.108692,-0.0613593
-0.58869,0.550038,2.34119,-0.109368,0.355156,-0.343056
-0.381798,0.260008,1.50725,-0.13035,0.548743,-0.242321
0.245585,-0.0399339,0.0755483,0.0586763,0.618257,-0.200633
0.051317,-0.50591,-1.36563,0.625458,0.5252,-0.121275
0.587893,-0.429279,-2.51484,0.360466,0.159304,0.00490832
1.07416,-0.89475,-2.76322,0.26229,-0.0968445,0.150838
0.710063,-0.548029,-2.5649,0.0414829,-0.451007,0.264733
0.216198,-0.19576,-1.08282,-0.000446141,-0.568093,0.326725
-0.405282,0.316618,1.49504,0.158206,-0.415107,0.252687
-0.274648,0.570188,3.00467,0.415185,-0.0526524,0.095127
-0.224771,1.28216,2.72885,0.43814,0.0332528,-0.176501
-0.154533,0.577445,1.70905,-0.0474392,0.289115,-0.181696
-0.620383,0.296349,0.806285,-0.179601,0.449943,-0.313723
0.448829,-0.141318,0.218001,-0.0941854,0.609514,-0.275445
0.459473,-0.258546,-0.842169,0.306346,0.408663,-0.00652599
-0.453139,-0.538196,-2.33212,0.224819,0.185452,0.044602
0.714021,-0.40576,-2.45041,0.213385,0.0266843,0.132646
1.47687,-0.339822,-2.28665,0.00890148,-0.359365,0.256672
0.164684,-0.341394,-1.30965,0.0564423,-0.519461,0.360825
-0.347415,0.328686,0.480153,0.141348,-0.486168,0.258438
-0.449357,0.642335,2.64776,0.529867,-0.354724,0.195236
-0.235649,1.43119,3.03449,-0.0320294,-0.161427,-0.0698875
-0.238823,1.10237,2.53337,0.00895798,0.292699,-0.397014
-0.946477,-0.248119,0.847059,-0.0273402,0.444371,-0.110248
-1.45847,-0.266094,-0.490301,-0.171573,0.44571,-0.155968
-0.499353,-0.147775,-0.83045,-0.311339,0.408377,-0.0262137
-1.1069,-0.215598,-1.39322,0.798409,0.25482,0.149026
0.896187,0.708992,-2.0221,0.473746,0.179783,-0.0987521
3.18838,0.437885,-2.12715,0.0998557,-0.179977,-0.0357656
0.715068,-0.305948,-1.57172,-0.188748,-0.563462,0.0694655
-0.628088,-0.629129,-0.042502,-0.060096,-0.561809,0.105283
-2.11442,-0.763853,2.29378,0.173179,-0.356842,0.134608
-1.73071,-0.17023,3.5094,0.326664,0.187333,-0.0906542
1.04745,0.154241,2.11803,0.0634225,0.3407,0.0212601
0.0823238,0.268961,0.720414,-0.306346,0.357973,-0.0630102
-0.542206,0.1026,-0.000980873,-0.313295,0.493259,-0.187414
0.147253,0.0157225,-0.514964,0.0516546,0.491681,-0.12894
0.105771,-0.0893823,-1.38416,0.691139,0.285546,-0.0794898
0.805853,-0.236398,-2.07614,0.521441,0.07888,0.072274
1.00359,-0.457631,-2.66588,0.262129,-0.212074,0.085133
0.637152,-0.583798,-2.2818,0.0360558,-0.491371,0.198026
-0.175865,-0.400202,-0.878887,-0.136004,-0.60358,0.199879
-0.613689,-0.114586,1.60604,0.120186,-0.420671,0.180212
-0.821125,0.124066,3.60064,0.518131,0.0316445,0.15053
0.0198973,0.972129,2.69011,0.645578,0.0570666,-0.14342
-0.654818,0.523189,1.61991,-0.122225,0.297722,-0.188665
-0.533948,0.226141,1.01221,-0.295303,0.556073,-0.305048
0.233069,-0.0779831,0.302259,-0.0171261,0.67745,-0.244851
0.235227,-0.0572845,-1.2984,0.38219,0.432155,-0.0694271
0.31221,-0.233536,-2.48509,0.248088,0.287103,0.0444661
1.05596,-0.739895,-2.79101,0.435564,-0.0351855,0.168401
0.774696,-0.216024,-2.65549,-0.00847685,-0.387447,0.201703
1.02486,-0.0987512,-1.45758,-0.00675797,-0.491324,0.303005
-0.142375,0.0759863,0.223994,0.146696,-0.609957,0.326015
-1.01086,0.745608,2.82021,0.396401,-0.28287,0.164835
1.16301,1.19217,3.1759,0.649776,0.0083735,-0.174251
-0.51383,1.01404,1.98908,-0.0157099,0.102066,-0.201941
-0.438437,0.418827,1.28697,-0.255621,0.501005,-0.360928
0.252818,-0.00382593,0.568966,-0.0857635,0.617326,-0.3373
-0.103507,-0.206525,-1.26879,0.0899007,0.444274,-0.0962555
-1.54526,-0.474973,-2.69027,0.183416,0.262416,0.029242
0.794523,-0.298401,-2.71792,0.410521,0.0622394,0.114063
1.79329,-0.0128103,-2.6797,0.0891142,-0.390184,0.147289
0.974798,-0.0445505,-1.63762,-0.0168272,-0.581678,0.255059
-0.379168,0.130873,0.355239,0.0595291,-0.640235,0.251888
-0.676864,0.41868,2.93149,0.472789,-0.255008,0.126002
-0.199764,0.790547,3.21294,0.380545,-0.0705127,-0.101479
-1.50826,0.222523,2.18601,0.253062,0.232239,0.0178164
-1.24296,0.131046,1.30185,-0.303252,0.495145,-0.192658
-0.151823,-0.12489,0.800087,-0.269112,0.611223,-0.107101
-0.418056,-0.182678,-0.595929,0.0766362,0.639363,0.0157731
-0.692901,0.281476,-2.23149,0.220799,0.380501,0.00754577
1.65376,0.0535307,-2.67638,0.56798,0.183825,0.0295111
1.86233,-0.221191,-2.69626,0.160748,-0.32024,0.1403
1.13586,-0.17844,-1.77612,-0.0667655,-0.469018,0.184289
0.378543,-0.155005,-0.308918,0.067143,-0.570257,0.316825
-1.76337,0.133625,1.93989,0.42811,-0.526414,0.359043
-0.689846,0.874551,3.3922,0.415311,0.0400416,-0.131333
0.596651,0.958033,2.20943,0.139275,0.0575836,-0.0598707
-0.935879,0.52485,1.83681,-0.0831902,0.345619,-0.292621
-0.596616,0.046816,1.06121,-0.220675,0.63094,-0.324751
0.111712,-0.388836,-0.363962,0.0983039,0.655568,-0.150046
-0.562947,-0.781777,-1.78604,0.701235,0.477548,-0.0522172
0.784897,-0.312911,-3.079,0.690367,0.181943,0.26949
1.14127,-0.0170549,-3.55718,0.259629,-0.298738,0.0226492
1.22348,0.0833692,-2.29248,-0.0435361,-0.507251,0.154139
1.26225,0.0812365,-0.441766,-0.0300697,-0.619864,0.186101
-0.60881,-0.142488,1.53358,0.201247,-0.595985,0.245216
-2.64675,-0.0634033,3.72751,0.594485,-0.0258804,0.149249
0.023532,0.121029,2.83988,0.463692,0.133736,-0.134647
-1.41754,0.31662,1.66861,-0.125289,0.168967,0.00195056
-1.92473,-0.0862737,1.34665,-0.249642,0.62254,-0.121802
-0.0821736,0.0999049,0.489039,-0.21159,0.757118,-0.0466669
0.0832222,0.67668,-1.30373,0.210576,0.502088,0.0543796
-0.112126,0.421415,-2.58815,0.322144,0.321678,-0.0858645
1.27393,-0.039562,-2.93149,0.567837,0.00882664,-0.0420128
1.20952,-0.167816,-2.99928,0.148728,-0.385021,0.0384657
0.765618,-0.110265,-2.04506,-0.0897171,-0.534504,0.0757929
0.249464,-0.458097,0.40522,0.124458,-0.62542,0.221108
-0.739554,-0.329916,3.028,0.515359,-0.346673,0.281433
-0.903165,0.575598,3.38265,0.641221,-0.160166,-0.135315
-0.0119163,0.640795,2.56713,-0.00598282,0.24784,-0.0707269
-0.56789,0.497672,1.72618,-0.173928,0.380164,-0.170633
-0.502908,0.2408,0.856235,-0.169905,0.700225,-0.226389
0.809553,0.116555,-0.598615,-0.0183288,0.741486,-0.17181
-0.319706,-0.413265,-2.30252,0.344842,0.399717,-0.156947
-0.932206,-0.63268,-4.03641,0.642014,-0.0275365,0.0600588
-1.07285,-0.233439,-4.25001,0.163105,-0.36556,-0.0547448
0.434736,-0.104086,-2.31986,0.145953,-0.581576,0.0304368
0.942705,-0.227597,-0.0392247,0.187694,-0.650087,0.17083
2.3094,0.0771281,2.54743,0.170491,-0.377246,0.239187
0.544987,1.23704,3.52268,0.101714,-0.148633,0.168001
-0.462098,2.06806,3.06157,0.545274,0.198577,-0.0917547
0.507561,1.18585,1.7236,-0.111284,0.348202,-0.370112
-0.682923,0.514372,0.840963,-0.14195,0.341036,-0.394125
-0.214642,-0.176717,0.456145,0.153012,0.73654,-0.431144
0.721801,-0.198115,-0.990093,0.44899,0.388797,-0.18732
-0.473094,-0.875907,-2.43151,0.306902,0.221205,-0.0311304
0.0397843,-0.775838,-3.62583,0.425033,-0.0500779,0.187129
0.607417,-0.42937,-3.16973,0.101808,-0.423593,0.183987
0.394675,-0.328351,-1.69351,0.0435079,-0.663399,0.282761
-1.00278,-0.416644,0.355384,0.215715,-0.639508,0.309391
-1.94644,-0.822206,2.59395,0.51019,-0.238535,0.197436
0.432308,0.165512,4.01962,0.628918,0.17769,-0.208045
1.72733,0.921407,3.13276,0.00205809,0.277582,-0.175763
0.0764322,0.793253,1.82604,-0.182389,0.326417,-0.23505
-1.07468,0.127074,0.934961,-0.170737,0.615729,-0.254947
0.341659,0.0787323,-0.439856,0.0331499,0.821991,-0.190817
0.222112,-0.395048,-2.03563,0.370019,0.477706,-0.149396
1.04451,-0.896053,-2.91077,0.484533,0.147465,0.125655
0.807952,-0.865528,-3.27192,0.153211,-0.375677,0.202306
-1.0786,-0.402082,-2.34496,0.0214664,-0.569381,0.223982
-0.00357028,0.00850171,-0.434283,0.130264,-0.552246,0.226385
1.15655,0.608958,1.97018,0.208426,-0.480917,0.184237
0.610817,1.41208,3.46837,0.350132,-0.0276461,0.0526928
0.999561,1.52459,2.00532,0.175577,0.0537919,-0.146655
-0.468474,0.884456,1.21119,-0.231509,0.197961,-0.272497
-0.851789,0.124825,0.967867,-0.160007,0.444515,-0.431143
-0.385896,-0.330923,0.16268,0.0584832,0.57388,-0.318098
-0.652746,-0.745304,-1.12632,0.812392,0.406287,-0.0671424
-0.279271,-0.546059,-2.4778,0.556458,0.153532,0.093377
0.690928,-0.461356,-3.09976,0.177207,-0.183866,0.106415
-0.00401233,-0.170525,-2.62985,-0.0297892,-0.447004,0.132688
0.346499,-0.285481,-1.02299,0.0311484,-0.580105,0.191091
-0.528552,-0.312445,0.893914,0.118932,-0.454492,0.103524
-3.09773,-0.985263,1.09166,0.619906,-0.0824899,0.00730026
-3.84655,-1.7898,0.668835,0.372748,0.433544,-0.228247
-1.81743,-2.10308,0.76287,-0.239835,0.232144,-0.0915875
-1.47204,-1.69775,0.576692,-0.458211,0.0466511,0.0969605
0.74693,-0.939883,0.605731,-0.304643,0.0696962,0.453693
0.917533,-0.266177,1.0999,-0.0998815,-0.0204098,0.365237
0.693972,0.409806,0.893809,0.348347,0.292031,0.349842
1.49857,2.06434,-0.656746,0.146797,0.38961,0.231153
1.14584,2.88098,-2.3419,0.183465,0.0958058,-0.106449
-0.496205,1.98793,-2.45551,0.130904,-0.21273,-0.232588
-0.322936,0.482678,-1.85425,0.273568,-0.316058,-0.316682
-0.268058,-1.03547,-0.737285,0.333362,-0.253433,-0.355176
-0.818534,-1.87072,0.293918,0.194773,-0.220341,-0.146162
-1.11334,-2.94511,1.51568,0.208295,-0.110684,-0.0347463
-0.126439,-2.90458,1.90909,-0.104528,0.0510861,0.163685
1.40463,-1.59451,1.60289,-0.193642,0.273744,0.443882
6.36752,0.564751,1.54657,0.0241281,0.492298,0.459848
4.37488,1.44303,0.196783,0.327632,0.385741,0.134435
1.80314,0.708856,-1.09663,0.286666,0.494379,-0.0649533
2.543,-0.740384,-3.03866,0.412144,0.00356786,-0.0734718
-0.0669047,-1.18913,-3.6118,0.124013,-0.466085,0.0852673
-0.771063,-0.92942,-2.0081,0.0103832,-0.48951,0.151092
-0.141241,-0.714032,0.484481,0.160842,-0.57525,0.22445
-0.0967381,0.0837766,2.86532,0.403932,-0.171545,0.142006
0.688027,1.17154,3.39436,0.354119,-0.106484,-0.00813609
0.390615,0.932754,2.32421,0.15329,0.270334,-0.226454
0.252963,0.674289,1.06674,-0.238355,0.362863,-0.35309
-0.16788,-0.162903,0.434862,-0.199919,0.507417,-0.332438
-0.364265,-0.517175,-0.657665,0.116339,0.489165,-0.11745
-1.41133,-0.470717,-2.03164,0.288836,0.330069,-0.0498786
0.685377,-0.176385,-2.6283,0.416665,0.110271,0.0348848
1.90187,-0.232934,-2.67573,0.0850948,-0.321803,0.114808
0.838471,-0.303207,-1.78283,-0.0663233,-0.533765,0.220908
-0.199512,-0.081789,-0.229289,0.0289221,-0.61573,0.289663
-0.630145,0.580449,1.99893,0.108006,-0.387663,0.090035
-0.325937,1.05494,3.47145,0.515836,-0.0400271,0.06805
0.0404406,0.741194,2.5827,0.268782,0.262646,-0.256031
-0.958663,0.393824,1.42409,-0.260667,0.273974,-0.200967
-1.23493,-0.267038,0.898454,-0.100121,0.643719,-0.23977
-0.295041,-0.173774,-0.33803,0.0332152,0.657404,-0.121022
-0.349875,-0.112731,-1.49469,0.670067,0.467003,0.0735774
0.985122,0.176251,-2.42539,0.496804,0.259871,0.0310439
2.10746,-0.29523,-3.39149,0.331591,-0.192932,0.0375299
1.39173,-0.574875,-2.96177,0.122068,-0.542851,0.190575
-0.146389,-0.61349,-1.27593,0.0194359,-0.652896,0.277603
-1.07669,-0.239984,1.16598,0.0924986,-0.528635,0.166877
-1.35088,-0.181672,3.23951,0.423209,0.0749281,0.0119331
-2.80334,-0.865417,2.5579,0.513938,-0.249294,-0.0988346
-4.29416,-1.80533,1.36709,-0.0484099,0.336998,0.101498
-3.08902,-1.54246,0.104857,-0.281586,0.444467,0.274637
-3.31638,-0.857665,-0.559667,-0.206738,0.122695,0.549562
-1.82161,0.520626,-0.350386,-0.0382773,0.140314,0.534464
2.36073,1.90402,0.276001,0.223693,0.243746,0.170753
7.42081,2.94197,-0.176558,0.131037,0.259678,0.286723
5.65643,1.56,-1.99484,0.0779986,-0.099703,0.408641
-0.290273,-0.401522,-2.90509,-0.0251868,-0.656799,0.229434
-1.25154,-0.62509,-1.66784,0.250555,-0.461374,-0.00778341
-1.73924,-1.59494,0.608148,0.277413,-0.744539,-0.231088
-1.90522,-1.38319,3.12235,0.279654,-0.0617079,-0.36881
-3.63344,-2.42748,3.22201,0.471201,0.283108,0.192274
-1.02968,-1.88552,1.51339,-0.321274,0.368419,0.293886
-0.450386,-0.912941,0.833995,-0.259347,0.269525,0.501499
0.151635,0.219796,0.73381,-0.0557773,0.500341,0.514001
0.953226,1.95098,-0.97004,0.0471748,0.444146,0.206129
2.28888,2.2891,-2.50793,0.414283,0.246678,-0.00375605
-0.24507,1.90705,-3.39321,0.209535,-0.223217,-0.144224
0.555352,1.11741,-2.572,0.217027,-0.367388,-0.227515
0.126888,-0.425885,-1.38617,0.40874,-0.534484,-0.268937
-2.4133,-2.73044,-0.29199,0.525573,-0.294998,-0.033427
-1.07168,-2.71811,0.622203,0.0569469,0.00623769,-0.263472
0.4993,-2.73666,2.29819,0.0416665,-0.201979,0.201176
4.09643,-1.02332,3.2098,-0.181894,0.105628,0.39239
5.09666,1.23336,2.78115,-0.115649,0.254,0.246437
1.24681,1.72,1.46221,0.0391135,0.782112,-0.166289
2.52842,0.474176,-0.596635,0.292736,0.658421,-0.189395
2.24321,-0.886099,-2.19797,0.348859,0.178067,-0.253193
0.395803,-2.0679,-2.59575,0.21383,-0.141991,0.00965029
-1.22125,-1.37693,-2.7719,0.0191776,-0.340938,0.186943
0.326599,-0.672931,-1.46502,0.278722,-0.396997,0.454842
0.203602,0.184886,0.339973,0.168734,-0.586077,0.367402
-0.189403,0.987552,2.25544,-0.0235374,-0.328608,0.0851748
0.734166,1.86187,3.56421,0.483701,-0.047131,-0.0705513
0.0886943,1.28519,2.76313,0.0644541,0.17536,-0.408114
-1.4551,0.461823,1.6109,-0.0638397,0.410407,-0.424982
-0.0822534,-0.222977,0.32659,-0.0549652,0.887462,-0.345853
0.541888,-0.469837,-1.29565,0.664467,0.598462,-0.0242095
-0.955767,-0.307835,-3.37296,0.299725,0.160902,-0.0358906
1.04795,-0.286,-3.45856,0.407626,0.0117907,0.148752
