rotation_x,rotation_y,rotation_z,acceleration_x,acceleration_y,acceleration_z
0.112477,-0.0577616,0.0657622,0.0119869,0.0170853,0.0209426
0.126796,-0.0556645,0.144083,0.0311558,0.0138866,-0.0422124
0.100613,-0.117419,0.275544,0.0153244,-0.000776365,0.0382165
0.27044,0.143231,0.348948,0.0932017,-0.0326888,-0.0360093
0.115655,-0.0769826,0.281027,0.0362442,-0.233102,0.0200423
0.0212362,0.00182067,0.409432,-0.0248306,-0.165024,0.0739715
0.343227,-0.00161768,0.434496,0.0118298,-0.148861,-0.0405158
0.336026,-0.0601753,0.508353,0.0358867,-0.108323,-0.0818661
0.209605,0.143207,0.582736,0.188079,0.0294747,-0.223614
-0.034679,0.149759,0.675266,0.0540886,0.00569171,-0.170002
0.153518,0.230578,0.456754,-0.0398263,0.0481811,-0.153974
0.211212,0.104953,0.329035,-0.0778943,-0.0104233,-0.0539303
-0.0305257,0.0242441,0.289975,0.0488733,0.0716434,-0.0956628
0.1281,-0.0865371,0.125918,0.0207065,0.0622509,0.0344074
0.397956,-0.0526598,0.0657659,-0.0558726,0.124813,0.142051
0.186776,-0.0408002,0.0944156,-0.0823561,0.102663,0.147157
0.272978,0.00280348,0.0161211,-0.0887019,0.0786754,0.142929
0.193241,-0.0599358,-0.00506381,-0.0499731,0.0712314,0.129453
-0.304997,-0.082988,-0.0288965,-0.0248829,0.0157916,0.180735
-0.421755,0.123612,-0.0518353,-0.0569411,-0.0424627,0.18252
-0.382201,0.151248,-0.0107281,-0.0222576,-0.0698988,0.0960103
-0.27954,-0.00852643,0.1148,0.129565,-0.161399,0.0874848
-0.954126,0.642298,0.344211,0.0880853,-0.0687317,0.107346
-2.41089,1.85247,0.862939,-0.0542005,0.016258,0.326658
-2.96761,3.6346,1.60437,-0.0448411,-0.113442,0.557483
-3.81875,4.01506,2.3021,0.466592,0.139763,0.151621
-1.24786,2.75945,1.44698,0.333078,0.343795,-0.218267
0.13608,2.33375,1.3014,0.0881346,0.389166,-0.210341
1.01138,1.17219,-0.287174,0.670062,-0.118829,-0.435928
-2.81103,-0.366116,-1.19624,-0.00423837,0.19116,-0.351489
3.22033,-0.0622637,0.377214,-0.115522,-0.359388,-0.122684
0.999987,-0.418253,0.23249,0.00053072,0.317743,-0.0397048
0.618389,-0.737183,-0.266188,-0.022005,0.196169,0.118992
0.219269,-0.649609,-0.265451,0.0239589,0.177438,0.199739
-0.320019,0.0703901,-0.365426,0.197935,0.128849,0.25587
0.719569,0.371953,-0.432105,-0.174619,0.0789746,0.0212682
1.98382,0.0687915,-0.725847,0.0661858,-0.00547008,0.130206
1.06847,-0.0496407,-1.18259,0.00214684,-0.178333,0.133115
1.0163,0.28028,-0.775563,-0.075935,-0.27923,0.0971572
0.955156,0.685724,-0.137437,-0.0662651,-0.265986,0.0544918
0.875102,0.816477,0.784486,0.386966,-0.183252,-0.00549001
0.457186,-0.149658,0.409162,-0.0181932,-0.0531611,0.00376576
-1.35728,-0.925292,0.0628053,0.0370954,-0.054697,0.126708
-2.09188,-0.919384,-0.111484,-0.0300186,-0.0868281,0.274468
-1.55372,-0.623962,0.308695,0.0420442,-0.0864739,0.259445
-1.59542,-0.555905,0.67112,0.0474651,-0.170033,0.216446
-3.19227,-0.559158,1.364,0.243318,-0.0684578,0.310854
-3.09643,-0.203541,0.746925,0.0702237,0.0277892,0.250551
-2.16208,-0.112632,0.527211,-0.0352457,0.131444,0.0861077
-2.11417,-0.118968,0.185129,-0.240833,0.11787,-0.00987875
-3.10209,-0.698188,-0.526805,-0.0342789,0.197683,-0.337952
0.464016,-0.158165,0.377134,-0.0095095,0.041352,-0.110841
0.111635,-0.0162455,0.0389366,0.0692369,-0.112484,0.0120606
-1.37772,-0.362207,0.205499,0.0198855,-0.000827715,0.0499087
-1.29984,-0.256904,0.29622,-0.0545564,-0.0295354,-0.0113583
-1.22803,-0.620019,0.600403,0.0187205,-0.0568245,0.0171587
-2.51416,-0.718028,0.439238,-0.0271386,0.0652078,0.0457329
-4.00577,-0.884887,-0.438348,-0.20021,-0.0911826,0.151446
-0.851132,-0.300802,-0.00381088,-0.432123,0.056447,-0.0422757
-0.357457,0.326844,0.0878877,-0.236813,-0.0321519,-0.0307016
-0.0629717,0.625704,0.232262,-0.097188,0.00232553,-0.0738804
-0.672308,0.46543,0.194469,-0.14577,-0.00143901,-0.234023
0.851774,0.234311,0.486071,0.354897,0.09391,-0.120006
-1.40113,-0.810148,-0.511707,0.419608,0.00138052,0.114317
-0.0873813,-0.40669,-0.229542,-0.268043,0.0299165,0.0526446
-0.00743705,-0.273841,0.385833,-0.160883,0.0501007,0.0923041
0.35476,0.0368768,-0.259231,-0.237583,-0.0756554,0.140117
-0.235294,0.898125,1.07056,0.462888,-0.0653079,0.0324259
1.11305,1.0622,0.755894,-0.121471,0.114612,-0.173225
0.34671,0.197478,0.288728,-0.34011,0.105563,-0.441515
-0.494116,-0.447931,-0.108829,0.333687,0.202397,-0.063706
-1.47933,-0.68864,-0.905666,0.272911,0.048091,0.167712
0.0279919,-0.386446,-0.613706,0.0517113,-0.0904104,0.13488
-0.205428,-0.209618,-0.438786,-0.312083,-0.198665,0.116283
0.754304,0.779374,0.550815,0.181278,0.0590311,0.0405851
2.37587,1.09544,0.360088,-0.133205,0.0341343,-0.0741639
1.76447,0.245484,-0.0346727,-0.213884,0.0156947,-0.369331
-0.741349,-1.02786,-0.194573,0.229143,-0.0921156,-0.0442818
-2.29974,-1.40022,-0.662629,0.345157,0.0499781,0.166698
0.0508469,-0.558,0.0098816,-0.0716585,-0.0433014,0.141679
-0.212059,-0.155407,-0.119841,-0.220769,-0.118289,0.165093
0.116952,0.860631,0.997501,0.308105,-0.0192726,0.0846658
1.39186,1.34082,1.05751,-0.0338019,0.162512,-0.24298
0.728429,0.461221,0.160028,-0.308604,0.174879,-0.381092
-0.222027,-0.500301,-0.0639359,0.318619,0.127704,-0.13153
-1.45579,-0.842949,-1.07333,0.352733,0.0621047,0.100948
-0.660801,-0.714783,-0.896355,-0.0997443,-0.251881,0.124903
-0.33061,-0.109561,-0.0591252,-0.542062,-0.202593,0.104592
0.0298621,0.582874,0.976444,0.318515,-0.0888995,0.112093
1.23284,1.25053,0.761356,0.00238913,0.124979,-0.139851
0.726283,0.385698,-0.0412151,-0.282737,0.0351898,-0.276831
-1.23384,-0.703892,-0.181185,0.245743,0.0793033,0.081048
-1.48588,-0.647161,-0.696975,0.14665,0.080082,0.00887632
-0.757117,-0.77861,-0.779604,-0.284478,-0.0774473,0.0225527
-0.690827,-0.394497,-0.330596,0.0105201,-0.150505,0.0783085
-0.904373,0.425066,0.570929,0.366762,-0.0709896,-0.0313904
0.0250086,0.712837,0.600437,-0.0825347,-0.00842234,-0.0641243
-0.982884,0.315464,0.644026,0.198142,0.0848987,-0.0366207
-1.074,-0.30058,-0.201197,0.341311,0.231631,-0.110062
-1.78082,-0.956702,-0.692511,0.269219,-0.0400129,-0.171929
-2.85622,-1.15488,-1.03857,0.0920703,0.0498201,0.00738001
-0.502239,-0.776825,-0.127851,0.126095,-0.165367,0.106465
-1.09306,-0.313537,0.589867,-0.366361,-0.143054,-0.0499073
-0.558059,0.099002,0.886751,0.142211,-0.0893549,-0.014279
-0.411844,0.414016,0.730701,-0.0261834,0.0084205,-0.105235
-0.0542085,0.751219,0.623068,-0.160965,0.0757051,-0.201526
0.42336,0.853021,0.754721,0.159935,0.176082,-0.237805
-0.0314505,-0.157685,-0.0182038,0.163813,0.167219,-0.0475185
-0.456842,-0.910771,-0.940946,-0.104756,0.168896,-0.0770141
-0.182205,-1.43133,-1.61188,-0.0728347,0.0123349,0.129906
-0.626454,-1.35348,-0.913531,0.0490642,-0.189943,0.23019
-0.579456,-0.595817,-0.103208,-0.219186,-0.269253,0.31643
-0.0395521,0.444521,1.11286,-0.0749179,-0.185436,0.254023
0.494324,1.70527,2.05667,0.619047,0.033489,-0.0400962
0.855058,1.04435,0.610596,0.0634475,0.0710051,-0.223951
-0.448723,0.0863696,0.0485685,-0.0245446,0.222733,-0.339494
0.944922,-0.224323,-0.312228,0.0872828,0.294493,-0.233941
0.435918,-0.873094,-1.00475,0.190406,0.110539,-0.0755869
-1.2298,-1.26034,-1.23846,0.466276,-0.0372188,0.270517
-0.833133,-0.987116,-1.03936,-0.087519,-0.105303,0.123164
0.669213,-0.657284,-0.58474,-0.213455,-0.295487,0.168405
-0.627439,-0.371368,0.638035,-0.0309662,-0.313071,0.269523
-1.21879,0.355875,1.48397,-0.12559,-0.158686,0.302103
-0.4887,1.73351,2.68045,0.586233,0.243652,0.0938203
1.738,0.896888,0.262053,-0.118927,0.325521,-0.296674
0.186566,-0.0768732,-0.296339,-0.34098,0.103271,-0.373945
1.92913,0.136806,-0.051955,-0.286618,0.247846,-0.267696
0.753291,-0.932042,-0.325469,0.398037,0.00437167,-0.0641628
-3.36912,-1.62785,-2.30627,0.29356,-0.00219429,0.328079
0.569924,-0.78165,-1.00547,-0.0569116,-0.130856,0.197599
0.691242,-0.632783,-0.729065,-0.252496,-0.340462,0.245011
-1.20962,-0.741288,0.29881,-0.140078,-0.374196,0.413017
-1.14672,0.734698,1.79386,0.0921066,-0.198635,0.322213
0.247354,2.31415,2.76209,0.527604,0.259616,-0.124572
1.92503,1.46722,0.625521,-0.121313,0.169192,-0.200594
0.99686,0.373725,0.247755,-0.00667679,0.172796,-0.584876
-0.984542,-0.703979,-0.547754,0.00521243,0.104611,-0.300607
-1.72313,-1.77844,-0.959792,0.516524,0.174185,0.0610666
-1.08594,-1.4646,-2.05036,0.0608368,-0.0310088,0.227229
0.789675,-0.971251,-1.11307,-0.0172863,-0.249578,0.30294
-0.0206005,-0.28963,-0.216026,-0.314202,-0.301831,0.313136
-0.119553,1.31196,1.75139,0.110158,-0.247057,0.225783
1.67238,2.43145,2.04683,0.202242,0.0710211,-0.134535
2.39682,1.58075,0.688571,-0.0195862,0.0852182,-0.231073
1.03708,0.602623,-0.00148775,-0.0792867,0.014293,-0.534683
-0.759192,-0.730826,-0.275354,0.0455668,0.0126632,-0.44013
-3.63534,-2.16973,-1.30335,0.417981,0.0844467,0.207898
-0.801638,-1.46594,-1.83407,0.167335,0.066243,0.196698
0.944297,-0.825587,-0.918734,-0.0437092,-0.23601,0.35423
0.410787,-0.0759299,-0.436195,-0.500317,-0.293596,0.345454
0.0366663,1.34598,1.49295,0.059797,-0.284314,0.324971
0.587651,2.13743,1.87958,0.0663531,0.119229,-0.104857
2.31285,1.3753,0.982273,0.132644,0.145044,-0.205342
0.357284,0.196578,-0.309658,-0.0113783,-0.0163146,-0.303689
-3.2267,-1.40274,-0.538196,0.526561,0.154102,0.0358667
-0.934342,-1.07846,-1.4869,0.0468101,0.117071,0.0814733
0.0676581,-1.17719,-1.22918,-0.366091,-0.146275,0.144743
-0.556661,-0.481897,-0.226187,-0.017222,-0.281383,0.219611
-0.0113916,0.961821,1.16193,0.22216,-0.185406,-0.0100133
0.636034,1.27651,0.850957,-0.22341,-0.0288758,-0.0190861
0.868285,0.971837,1.11086,0.00695997,0.034243,-0.247695
-3.52094,-0.72663,-0.385872,0.380545,0.119899,0.0948281
-1.02273,-0.504817,-0.844969,0.170151,0.288882,0.0565336
1.34167,-0.477774,-1.0013,-0.066854,-0.0923973,-0.0702041
-0.930053,-0.932741,-1.08334,0.0261406,-0.337738,-0.0135105
-1.10622,-1.05436,0.471612,0.326893,-0.39499,0.0770323
-2.64316,-1.02875,0.499149,0.0750602,-0.271043,0.145569
-0.46502,-0.64939,0.954946,-0.109371,-0.0487664,0.0152381
-1.81789,-0.228905,0.610496,-0.232137,-0.176873,0.154477
0.254489,0.763711,0.883541,0.00531453,-0.0888953,-0.0762614
0.304176,1.12451,0.957622,0.419472,0.0995088,-0.159435
-0.995854,-0.0206769,-0.152382,0.0318301,0.143539,-0.17046
1.1797,-0.52563,-0.708638,-0.0261804,0.0476806,-0.0234947
0.59618,-0.628575,-0.221542,-0.00355023,-0.0668452,0.0415568
0.219426,-0.53469,0.0182154,-0.0920709,-0.160454,0.12852
-1.87602,-0.48955,0.196798,-0.0540238,0.0125959,0.167654
-3.18788,-0.527924,0.00851373,0.106205,-0.0499159,0.186933
-2.97668,-0.261198,1.19272,0.244773,-0.106903,0.039495
-4.17127,-0.332488,0.34088,-0.188147,0.0583636,0.0347978
0.5068,0.160045,0.597901,-0.200893,0.0878491,0.045248
-0.995742,0.20047,0.850657,-0.140061,-0.00956759,-0.0923164
-1.07738,0.104819,0.497561,-0.0234631,0.1694,-0.0952458
-0.227439,0.229838,0.382874,0.32916,0.159021,-0.13296
0.639738,0.173971,-0.121198,0.0863129,0.26476,-0.204129
1.58452,-0.459065,0.0753685,-0.0350627,0.0923499,-0.0804051
0.40366,-0.791192,-0.616511,-0.20272,0.169283,0.0173454
0.74634,-0.793581,-0.605138,-0.0368158,0.133112,0.372271
0.272913,-0.0726686,-0.281428,0.0231386,0.075177,0.424913
0.243714,0.528656,0.178052,0.124246,0.0421449,0.187962
0.446928,0.610629,-0.442884,-0.0523612,-0.0136442,-0.0894114
0.598521,-0.0153405,-0.608644,-0.086768,-0.162074,-0.0749378
0.147791,0.194619,-0.337716,-0.196407,-0.107364,-0.0385371
0.525867,0.683809,0.378108,-0.149718,-0.0508799,-0.0267426
1.16048,1.01958,0.877493,-0.0299843,0.0617625,-0.0709972
1.49965,0.685054,1.04978,0.503044,0.244877,-0.176308
2.6498,-0.812154,-0.0064211,0.286246,0.245348,-0.0306429
0.34613,-1.65326,-1.02961,-0.154723,0.0819097,0.0120394
0.472154,-1.42562,-0.797136,-0.135586,0.0454949,0.2605
-0.836888,-1.06823,-0.154898,0.0936905,-0.0663662,0.499908
-1.58924,-0.130997,0.0380123,0.277332,-0.0647303,0.447107
-0.298909,0.837761,0.126626,-0.0369576,-0.0698033,0.207789
0.65602,0.93712,0.109505,-0.0475173,-0.188353,0.110868
-0.87155,0.882768,0.593349,-0.244475,-0.172306,-0.0652439
-0.355558,1.10784,1.38273,-0.0635042,-0.0153738,-0.237633
0.802161,0.790884,1.24733,0.361817,0.343831,-0.322169
1.67522,-0.133366,-0.149871,0.271385,0.235919,-0.250942
1.92527,-0.883988,-0.20412,0.109757,0.1856,-0.167898
0.44952,-1.40755,-0.702142,-0.1212,0.10535,0.0070641
0.418379,-1.56606,-1.0182,-0.0730728,0.0323395,0.303239
-0.591945,-1.196,-0.815876,0.127103,-0.109513,0.439518
-1.30057,-0.226995,-0.153536,0.173023,-0.193036,0.441171
-0.805472,0.753857,0.69911,-0.0998976,-0.200455,0.200646
0.44278,1.1414,0.93878,0.0673292,-0.166453,0.0191915
-0.635153,0.702615,0.755687,-0.170764,-0.109735,-0.0885445
-0.633937,0.557842,0.756909,-0.0617418,0.0776152,-0.174082
-0.139088,0.396833,0.398628,0.101227,0.176754,-0.211784
0.186401,0.126335,-0.0921015,0.307001,0.255551,-0.152197
0.788496,-0.3881,-0.64154,-0.0359179,0.180359,-0.12594
1.34722,-0.806821,-0.775071,0.141487,0.0613321,0.0175995
0.553448,-0.952987,-1.37711,-0.0583286,-0.0866428,0.170925
0.466729,-0.876333,-1.15759,0.0131754,-0.275177,0.245558
-0.546955,-0.551172,-0.215395,0.179837,-0.415589,0.291697
-1.69992,0.0219902,1.1993,0.298729,-0.408538,0.31129
-1.28905,0.462275,1.57613,0.0343445,-0.156993,0.0813575
-1.5243,-0.031386,1.26665,-0.0223113,-0.0671725,0.167161
-2.34762,-0.096605,0.586046,-0.154333,0.0916286,0.148527
-2.16235,0.0672735,0.226074,-0.0570261,0.0873175,0.149536
-2.38349,0.234522,0.364738,0.517181,0.105894,0.0948569
-1.64473,0.104271,-0.260631,-0.116189,0.0797004,-0.0725846
-1.69682,-0.467331,-0.187853,0.158965,-0.0234172,-0.0219442
-2.27295,-0.951138,-0.578288,0.0633435,-0.0431546,0.0197666
-2.05404,-1.44745,-0.160959,0.0582227,-0.177574,0.131952
-2.46741,-1.44103,0.90079,0.00834662,-0.154123,0.22639
-3.47956,-1.28826,1.60976,0.083383,-0.0399181,0.438485
-3.8189,-0.436487,1.81707,-0.0626834,0.142901,0.472465
-0.747061,0.859865,1.93089,-0.128477,0.283698,0.100855
0.0594015,1.0979,1.20635,0.12407,0.318994,-0.120341
-1.00461,0.347576,-0.382129,-0.0645437,0.270474,-0.309505
-0.63661,-0.229541,-0.772491,-0.0556843,0.1553,-0.277001
-0.0867326,-0.302345,-0.713725,-0.0279956,0.0883922,-0.269012
0.175904,-0.495189,-0.785511,0.0149685,-0.0261762,-0.118715
-0.102054,-0.656768,-0.868811,-0.00144339,-0.0933966,0.00454867
-0.235693,-0.467255,-0.61996,-0.0518039,-0.178423,0.0962737
-0.321282,0.143686,-0.14614,-0.040214,-0.163119,0.113929
-0.0691388,0.542578,0.211794,-0.0506114,-0.17898,0.00616145
0.106245,0.428606,-0.00346204,0.0773626,0.145725,-0.0941204
0.651065,-0.284684,-1.1583,0.150946,0.228136,-0.249104
0.463589,-0.697558,-1.18358,-0.0696874,0.177872,-0.0737318
0.507247,-0.635839,-1.22812,0.103181,0.178831,-0.0156554
-0.218608,-0.902364,-1.69542,0.144049,0.228058,0.023514
0.145258,-0.575661,-2.39829,-0.0501887,0.210643,0.0430197
0.681831,-0.289758,-2.23938,-0.180646,-0.0721833,0.0754815
1.81776,-0.249408,-0.9449,-0.116894,-0.326572,-0.0119299
1.28691,-0.268473,0.1862,0.0509627,-0.373466,0.012288
0.403249,-0.347612,0.00387866,0.0840811,-0.0547577,-0.0117239
-0.810703,-0.177554,0.360434,-0.0645188,-0.117054,-0.0141349
-1.92268,-0.616463,0.744429,-0.0198757,-0.0353336,-0.0798714
-1.43546,-0.465709,0.879347,0.0579613,-0.045629,0.0215862
-0.712514,-0.419358,0.715112,-0.025297,-0.0213356,0.0770323
-0.943133,-0.146578,0.302147,-0.084465,0.121409,0.0561482
-0.150309,0.177616,-0.160311,-0.262434,-0.00508618,0.0906836
-0.112663,0.329886,-0.466259,-0.233782,-0.130794,-0.047267
0.277632,0.756369,-0.189237,0.00929117,0.0876049,-0.0328876
0.0426467,1.02274,-0.494104,-0.0168445,0.109837,-0.0798634
0.174609,0.935323,-0.385455,-0.0582232,0.0349339,0.146899
1.38797,1.05046,-0.402875,-0.215075,0.0745198,0.196438
0.837987,1.01046,-0.543968,-0.118072,0.0569736,0.209826
0.707443,0.935029,-0.772373,-0.136912,0.109946,0.207693
0.62768,0.944668,-0.797921,-0.0472484,0.104582,0.0923006
1.2687,0.996327,-0.677209,-0.0648841,0.154422,0.062762
2.06847,1.35217,-0.048557,0.0947854,0.0344973,-0.0962796
1.92337,0.855313,-0.602202,-0.120533,-0.114785,0.262017
0.24119,0.442556,-0.914227,-0.0287267,0.243217,-0.00940168
0.119747,0.254326,-1.27839,-0.098992,0.146105,0.0576686
0.200859,0.515226,-1.92552,-0.0924555,0.172715,0.0427426
0.151919,0.317262,-1.87983,0.0174127,-0.0560584,-0.073832
0.158501,-0.293787,-1.72604,0.078359,-0.00795186,-0.236913
0.250411,-0.0703672,-1.53999,-0.0544133,0.07057,-0.0832306
0.616708,0.176427,-1.95045,-0.0695619,0.158424,0.0891899
0.142958,-0.0606844,-1.60652,0.0154671,0.104135,0.11482
0.268101,-0.0597193,-1.57834,0.0792768,0.0116937,0.104835
0.427258,-0.0396838,-1.28853,0.0848532,-0.0849378,0.0689343
0.57949,-0.148434,-1.04793,0.0733552,-0.10153,0.0329364
0.52628,-0.0302426,-1.03794,-0.0273881,-0.0838048,-0.0656857
-0.0465447,0.101011,-0.665529,0.00922275,0.0404925,-0.0166656
-0.377231,-0.124387,-0.767561,0.132469,0.0683727,0.034366
-0.209885,-0.0563924,-0.748604,-0.0378644,0.0293061,0.0866021
-0.234327,0.063927,-0.801461,0.105926,0.0317064,0.110076
-0.395203,0.126854,-0.831187,0.179109,0.0184615,0.0346473
-0.14032,0.0861906,-0.693338,0.0696095,0.0929875,-0.0674683
-0.254459,-0.00114091,-0.213801,-0.111114,-0.206197,-0.0893899
-0.718422,-0.0807194,0.109729,0.0248276,-0.0716095,0.0177928
-0.68048,-0.568328,0.354773,-0.0368852,-0.107032,0.215166
-1.00268,-1.23657,0.311091,0.01048,-0.0333019,0.0789068
1.7788,-1.29745,1.43693,-0.15463,-0.449,0.0183823
-0.630149,-1.04684,2.41481,-0.0642828,-0.451024,0.00969988
-1.57012,-0.902559,2.83979,-0.0221711,0.0338051,0.10291
-2.93045,0.12392,1.28795,0.277538,0.587041,0.526614
-2.74118,0.793664,-0.0211247,0.279762,0.438479,0.022122
-1.91953,0.0628696,-0.139575,0.0882624,-0.0388999,-0.226547
0.511266,0.37497,0.359842,0.0949819,-0.0983264,0.104427
0.843627,0.933532,0.476541,0.0137029,0.10219,-0.0317006
0.728023,0.545274,-0.22034,-0.0181438,0.25167,-0.0507467
-0.0965842,0.738511,-0.0778336,-0.0416723,0.0165668,0.0132632
0.32962,0.630736,-0.288118,-0.201035,0.0894099,0.0578701
-0.205258,0.258574,-0.29059,0.048263,-0.320777,-0.00355572
0.33055,0.308166,-0.138957,-0.0796108,-0.113294,-0.013688
0.899714,-0.211792,0.187084,-0.14676,-0.113325,-0.205713
0.0751945,-0.0546899,0.117629,-0.0963205,0.00216365,-0.13197
-0.381396,-0.259859,0.368561,0.0430755,0.141348,-0.0892177
-0.403649,-0.682382,0.158866,0.0546182,0.00882262,0.100605
0.320244,-1.1641,0.368841,0.20888,-0.0430202,-0.0558205
0.110001,-2.13156,0.402748,0.183547,-0.123562,-0.276541
-0.0917563,-2.72754,0.519906,0.154633,-0.0453392,-0.0453694
-0.0630014,-2.06223,0.394302,-0.0138948,0.0350483,0.1467
-0.93168,-1.43135,0.0551244,-0.180146,0.152882,0.218842
-0.684626,-0.878058,0.264025,-0.143155,0.0546657,0.246425
0.0681722,-0.244225,0.393988,0.0169251,-0.036409,0.201279
-0.90524,-0.102975,0.293949,0.0377916,-0.248136,-0.0631132
0.167772,-0.316709,0.493693,-0.108394,-0.14043,0.0476382
-0.0878999,-0.240922,0.427555,0.0406676,-0.0596442,0.00861073
0.365509,-0.087003,0.796583,0.19136,-0.0655092,-0.0937333
1.79338,-0.275739,2.11601,0.389699,-0.232361,-0.0418659
3.58808,0.510202,3.83586,0.250708,-0.352094,0.144088
3.13227,2.15836,3.72842,0.319486,0.0610659,0.312696
2.21251,2.72932,0.625207,0.318416,0.531317,0.0261291
2.25419,1.95829,-2.25378,0.351889,0.510603,-0.426593
-0.0261187,0.179403,-3.35286,0.28022,-0.0269962,-0.632889
-0.144307,-1.18748,-2.56908,0.134849,-0.308865,-0.333725
0.355975,-1.1146,-1.81399,-0.0251008,-0.270697,0.121785
0.678486,-0.501872,-1.17387,-0.118768,-0.146955,0.2682
0.404504,-0.201678,-0.440612,-0.105296,-0.330816,0.122619
0.022613,-0.504935,0.225636,0.183885,-0.170433,-0.104167
0.302096,-0.128355,0.349418,-0.019596,0.0127743,0.0408353
0.367981,0.151605,0.12289,-0.05107,0.175339,-0.150363
-3.85722,-0.45945,0.00281812,-0.0553381,-0.104423,-0.0148911
-0.976368,-0.371085,-0.0138826,-0.157779,-0.135883,0.362957
-0.584683,0.014996,0.133658,0.0363342,0.0241732,0.2191
-0.721121,0.0385088,0.149218,0.0580194,-0.194602,0.0429906
0.396071,-0.00595644,0.140502,0.316322,-0.0991639,-0.0994734
0.834661,-0.0403002,-0.0204558,0.32774,0.278041,-0.191549
0.453157,-0.326361,-0.013787,-0.0106696,-0.142728,0.152967
1.01008,0.912242,0.0715993,-0.581226,-0.038351,0.476829
1.18936,0.393671,0.2476,-0.175188,-0.0588938,-0.18201
-0.768915,-0.800336,0.45787,0.247108,-0.0742196,-0.103484
-0.144429,0.321321,-0.219287,-0.0196199,-0.0331537,0.0380458
-0.326137,0.322444,0.0945227,-0.179075,0.0588844,-0.197288
-0.337731,-0.118211,0.00488824,-0.0707279,0.06207,-0.0813454
-1.20785,0.512562,0.114324,-0.0460921,-0.145672,0.0907072
-0.134091,0.3542,0.236931,0.269673,0.16512,0.0965188
0.340097,0.802012,0.141208,0.00906783,-0.140334,0.111651
0.115615,0.988478,0.0806674,0.0483163,-0.0122135,-0.00514174
-0.00718651,0.891811,-0.369268,-0.0725634,-0.0358261,-0.0502287
-0.0772685,0.837742,-1.00494,0.0709575,-0.1363,0.0520713
-4.99263,-0.647818,-1.01739,-0.136932,-0.361299,-0.0985688
2.10261,-1.13341,0.133116,-0.198379,0.300272,0.144854
3.52956,-1.0705,-0.242664,0.206894,0.0606135,0.00622439
2.1813,-0.938519,-0.482925,-0.0175037,0.00847113,0.166495
1.87247,-0.961861,0.0982084,-0.0811738,0.209121,0.0191822
0.273779,-0.860676,0.33591,-0.105734,-0.0914248,-0.140915
0.247643,-0.136732,-0.0270093,-0.073804,-0.17093,-0.0231509
0.263372,-0.0495478,0.322135,-0.0751327,-0.0151659,-0.133699
0.186385,0.332707,0.0981721,0.00435624,0.145942,-0.134753
0.983547,0.443877,0.172416,0.236216,0.302117,-0.0822538
-1.39004,0.987714,-0.917166,0.19267,0.0492856,0.117076
-3.04685,0.489654,-0.751285,-0.0304236,0.0681782,-0.107923
-0.240653,0.400299,-0.746175,-0.109241,-0.0522814,-0.0588598
3.40129,0.430566,-0.531483,0.0798041,0.214051,0.0124379
2.07454,-0.236771,-1.20006,0.134909,0.18464,-0.264492
-4.10136,-0.174772,-1.08379,-0.0553809,-0.221186,-0.0309041
-2.79223,0.142324,-0.248029,-0.109203,-0.106559,-0.0868269
-2.14177,-0.803651,0.721777,-0.158107,0.0515271,-0.110875
2.52952,0.591564,0.920004,-0.268877,-0.0347036,0.261717
0.146703,0.213313,0.906238,0.0831134,0.0492766,0.0469685
0.496997,0.242695,1.53119,0.0563775,-0.186018,0.0711503
-0.241876,-0.445098,0.0737426,0.4332,0.477645,-0.546757
-0.190776,-2.83563,-1.06683,-0.259629,-0.0844469,0.304112
1.09435,-1.05697,-0.351646,-0.4093,-0.177878,0.44652
-0.0611276,0.32868,-0.119851,-0.0684851,-0.147731,0.161668
-0.475167,0.451255,0.477092,-0.0540669,-0.392625,0.326058
0.169502,-0.00389704,1.02233,0.163076,-0.0964513,-0.138463
0.0753912,-1.28734,0.11457,0.211145,0.296843,-0.0435131
0.674067,-0.437075,-0.653619,-0.0699779,-0.22607,0.250692
1.55664,-0.340885,-0.576268,0.182653,-0.0365889,-0.04001
0.817361,-0.286968,-1.13504,-0.04548,-0.262588,-0.0157162
-2.70806,0.503132,-0.368442,-0.0883763,-0.218924,0.219572
0.570217,1.02276,2.00342,-0.00491497,0.0514774,0.191512
1.54787,0.974114,2.10234,-0.0262179,0.148255,-0.0264247
0.654378,0.822595,1.93711,-0.303043,-0.0554451,0.219216
-0.916719,1.48384,1.44646,-0.0728403,-0.176832,-0.195635
-4.98872,1.72639,1.27696,0.310511,-0.655738,-0.359312
-7.92244,-0.582222,0.565034,0.28159,0.103923,0.0563507
-13.6636,-1.32128,-2.45338,0.887122,0.774904,0.0303965
-11.7578,-1.19808,-2.70923,0.16588,-0.748172,-0.189855
-7.33538,-1.10756,-3.09822,-0.257025,-0.362196,-0.140286
3.339,0.464182,-2.8525,0.261006,0.240546,0.0363662
11.7828,-1.09255,-0.260515,-0.0482668,0.0381317,0.0672408
3.83018,-2.0398,1.30029,-0.244314,-0.144842,0.0158774
2.83132,-0.214309,0.264633,-0.909216,-0.108956,0.191415
5.18097,0.979464,-0.145705,0.0210857,0.157298,0.00980377
5.68939,2.48401,0.726906,0.245685,-0.536326,-0.0821006
-1.72892,1.94086,2.34264,0.475496,0.511045,-0.200659
-2.75599,0.45085,0.18782,0.0741472,0.938048,0.0441031
-1.53439,-0.0542994,-0.972407,-0.0323879,0.31039,-0.0423648
-1.81185,-0.0626048,-1.01516,0.063329,0.0301512,-0.15747
-2.19907,-0.638176,-1.0543,0.310512,-0.112363,-0.0452193
-2.76828,-0.519563,-1.23326,0.295239,-0.266173,0.218158
-1.74835,-0.456596,-0.637158,0.323666,-0.340109,0.056493
-2.41774,-0.333822,-0.12985,0.114734,-0.307199,-0.00548172
-0.989734,-0.017824,0.507034,0.0800624,-0.252544,-0.0169514
-1.14377,-0.0348633,0.968923,0.0974367,-0.180506,0.1457
-0.441509,-0.0917389,0.724239,0.0920877,-0.14197,0.105536
-0.810607,-0.0319085,0.95878,0.00800106,-0.402813,0.00881416
-0.207429,0.0942608,1.17535,-0.023247,-0.00390825,0.11812
-1.12858,-0.0838166,0.865279,-0.00964844,0.043661,0.0900061
-0.928473,0.215215,0.624201,0.0739949,0.100823,0.0528449
-1.0591,0.27282,0.494171,-0.00630349,0.0530635,0.0552646
-0.775896,0.305667,0.294989,0.0189016,0.110386,-0.0178189
-0.767297,-0.108326,-0.0739073,0.205137,0.128503,0.0714415
-0.039433,0.109393,-0.208276,-0.0678597,0.149588,0.0999912
-0.890775,0.215503,-0.603484,0.10485,0.0686514,-0.0139819
-0.671944,0.303722,-0.753144,-0.0122701,0.0224417,0.0962117
-1.02446,0.435903,-0.456392,0.0273623,-0.134359,0.00566691
0.285118,0.890541,-0.504109,0.115709,-0.248714,-0.00615025
0.0439672,0.231795,-0.43981,0.211978,0.0789186,0.173337
0.0928452,0.467922,0.137627,0.11532,0.0767879,0.106466
0.824017,0.607901,0.108297,0.117166,0.148366,-0.0106659
0.721096,0.414291,-0.0618463,-0.0502552,0.101209,-0.0899202
0.550064,0.37699,0.579747,0.105274,0.138809,0.0474975
1.63013,0.067808,-0.611195,-0.00311995,0.102054,0.251577
-0.338999,0.415248,-0.752693,-0.00613266,-0.0997034,0.251135
0.191111,0.833155,-0.608978,0.0901763,0.23101,0.0245847
0.373582,0.642675,-1.39157,0.126417,-0.0844529,0.0343176
0.379756,0.807712,-1.58439,0.0867246,-0.243285,-0.190936
0.922188,0.653625,0.0226396,-0.0432624,-0.0910075,-0.0497672
-0.378165,0.280025,-0.509952,0.0757883,-0.507387,-0.346254
-0.175307,-0.0897032,0.292532,-0.169312,-0.469953,-0.335976
0.461806,-0.440465,0.619171,-0.157819,-0.0312147,-0.269484
-1.04872,-0.148369,-0.872605,0.230099,0.242584,0.304473
0.406749,0.0739386,-0.267446,-0.0400166,-0.357805,0.0992573
0.366762,0.575321,-0.214855,-0.156067,-0.191713,0.455949
1.81964,1.30754,0.278423,0.0261105,-0.199976,-0.00404078
2.44872,2.51751,-0.22638,0.0892296,0.250377,0.0475103
2.57174,-0.38764,0.28648,0.0933167,-0.0388226,0.103704
4.65917,0.0841064,1.86006,-0.257641,0.347087,0.0732889
4.35674,0.173679,2.12744,0.169946,0.0604378,-0.219908
0.793772,-0.571659,0.736569,0.15053,-0.319273,-0.167486
-0.824738,-0.207605,1.19005,0.155145,0.117241,-0.15698
-3.10007,-1.73705,-1.34076,0.414653,0.196381,0.253752
-4.89192,-2.89951,-4.22835,0.710464,-0.235615,0.386434
-4.50912,-1.35407,-4.68703,0.103866,-0.288549,0.510551
-2.21403,0.0585316,-3.2084,-0.167176,-0.56457,0.05419
0.0886308,-0.0822005,-0.647781,-0.183557,-0.806936,-0.18391
-0.698404,0.625824,1.02363,-0.459427,-0.0399963,0.300711
-1.18389,1.42878,1.04517,-0.261193,-0.0358586,0.200337
-1.49277,1.73971,1.49428,-0.0884308,-0.0960178,0.162357
-0.12423,1.27473,0.964176,-0.0164215,0.308458,-0.114061
1.75559,-0.676487,-0.0233439,0.0595078,0.262662,0.133233
1.18285,-1.31885,-0.619165,-0.0227393,-0.0702183,0.258445
0.68269,-1.27286,-0.0520519,0.203206,-0.0689473,-0.129546
1.17203,-1.82674,-0.0523784,0.156816,-0.444203,0.206452
-0.291167,-1.26902,0.214228,-0.0136489,-0.615607,0.386865
-0.911517,-0.766006,-0.282611,-0.0323854,-0.0879436,0.272603
-0.703854,-0.331871,-0.225008,0.0124011,-0.16805,0.257433
0.489104,1.93667,-0.153778,-0.24124,0.169677,0.328177
0.215643,1.78792,-0.461885,-0.0304413,0.224178,0.103014
-0.195031,-0.17874,-1.12309,0.334751,-0.0271006,-0.204032
0.885122,-1.49428,-0.568832,0.146769,-0.169927,-0.0839905
0.749329,-1.78473,-0.791722,0.148633,0.133286,-0.142123
0.527833,-2.34216,-1.48001,0.136826,0.0177767,-0.378791
2.85552,-0.410058,-0.273479,-0.0155762,-0.216214,0.409297
-1.32093,1.4225,1.01686,-0.170411,-0.222047,0.23371
-1.93947,1.3924,-0.222518,-0.138408,0.618823,-0.0494315
0.447325,0.548749,-0.574738,0.349505,-0.250959,0.0883476
0.612769,-1.6698,-0.255885,0.269586,-0.237196,-0.0544283
-1.08688,-0.941658,0.269134,-0.0954466,-0.0857202,0.187015
-1.92828,1.17171,1.10873,0.218449,-0.224534,-0.00683904
-0.822296,1.07823,1.34942,-0.0300081,0.389362,0.539572
-0.600008,-0.742894,0.0185549,0.199599,0.929431,-0.174176
3.0765,-0.155264,1.7353,0.106686,-0.475833,0.441145
-0.595629,0.569993,2.57739,0.118023,-0.223649,0.256444
-1.24358,0.860804,3.60407,0.13956,-0.104352,0.182011
-1.42633,1.98292,3.49596,0.165632,-0.662633,0.147909
0.771746,2.05687,3.52187,0.770511,0.750709,-0.422198
-2.43162,-0.621255,-0.0151677,0.475534,0.695696,-0.146263
-3.21677,-0.89827,-0.912481,-0.395641,-0.376837,-0.00236887
-1.40883,-0.16551,0.579504,0.0211203,0.233507,0.105421
-0.836232,0.296126,0.275028,0.058218,0.202787,0.0621474
-0.373973,0.721757,-0.436462,-0.125947,-0.179507,-0.0735621
0.159433,0.15613,-0.409511,0.09055,0.000315845,0.276039
0.525415,-0.122975,-0.635298,-0.180112,-0.173483,0.276229
-0.500694,0.796305,-0.217405,-0.035441,-0.360426,0.0989451
1.24102,1.28654,0.806176,0.340118,-0.112544,0.100477
2.06547,0.895413,0.283757,0.109443,0.0460844,-0.286582
-1.33093,0.606277,0.189891,-0.017253,-0.407288,-0.131889
-0.759012,-0.517057,-0.206184,0.296055,0.431048,-0.0156436
1.46854,-0.313115,-0.736846,-0.287235,-0.253049,-0.038237
-1.56582,-0.311072,-0.00888019,0.172681,-0.210333,-0.0962409
0.584836,0.06305,0.180003,0.240075,0.527252,0.067726
0.404049,0.605009,0.146374,-0.459431,-0.564817,0.0172596
-0.13549,0.0124859,0.197595,0.177951,0.141538,0.234829
0.258755,-0.291011,-0.453989,-0.0803599,0.051101,-0.0157245
0.644831,-0.669212,-0.316468,0.251966,0.0721059,0.230973
-0.818104,0.0789524,0.320422,0.253048,0.0928066,0.126856
0.169419,0.141087,0.0852806,-0.11267,0.0305341,-0.131255
0.32066,0.556154,-0.0440395,-0.147482,0.0335507,0.0530674
0.105375,0.404095,-0.0206222,0.233822,-0.268419,0.230396
0.390457,0.484716,0.217006,-0.00852859,-0.167864,0.188375
0.245541,0.271951,0.135271,-0.108141,-0.162889,-0.0586214
0.187376,-0.151587,-0.156202,-0.177254,-0.104402,-0.0713319
0.385413,-0.54661,-0.338812,0.0175338,-0.0829017,0.074753
-1.25981,-0.655158,0.129834,0.0738997,-0.175094,-0.100461
-1.3594,-0.172902,0.196752,0.16763,0.0745884,-0.0154332
0.112073,0.147518,0.0878394,-0.0359994,0.267043,-0.10842
1.063,0.431073,-0.0815483,-0.0997558,-0.346455,-0.00269592
0.733622,0.189633,0.106616,0.104995,-0.00992554,0.288463
0.511728,-0.41266,-0.02165,0.0244524,0.0127843,0.00987625
-0.0136053,-0.521859,-0.238426,-0.157433,-0.311929,-0.109002
-0.537646,-0.146839,-0.00488957,0.131772,0.209249,0.0563581
0.0687623,-0.00781567,-0.098804,0.0264609,0.143518,-0.184564
0.356112,0.4316,-0.113115,-0.271361,-0.379197,-0.0765715
0.301302,0.0739492,-0.0073863,0.273905,0.180755,0.162493
-0.371648,-0.351307,-0.140934,0.026076,0.0272291,-0.0149027
-0.274615,-0.519496,-0.407349,-0.235507,-0.411257,-0.15427
0.356429,-0.0218983,0.00403752,0.0476217,0.104577,-0.0281109
0.82981,0.318337,0.202871,0.120392,0.194344,-0.269137
1.04877,0.516226,-0.0732441,-0.151138,-0.538651,0.0782392
-2.59217,-0.445466,-0.19063,0.164064,0.106263,0.363904
-0.768113,-0.668229,-0.148331,-0.0885088,-0.00119883,0.0101918
-0.512794,-0.24254,-0.510977,-0.379643,-0.502214,-0.256548
-3.45808,-0.556643,0.00203998,0.269629,0.256275,0.383708
-0.250051,-0.494138,0.240682,0.266012,0.61185,-0.0293601
0.585269,-0.0467014,0.563417,-0.472751,-0.235039,-0.170035
0.823341,0.00861437,0.024277,0.241555,0.101547,0.261202
0.216551,-0.274042,-0.141853,-0.0425003,0.0591026,0.168843
-0.4745,-0.350099,-0.439772,-0.221662,-0.141639,-0.381276
-0.43825,-0.0926586,0.102175,0.378782,0.161182,0.236012
-0.0150178,0.042119,0.463379,0.0684783,0.275958,0.0135462
1.50962,0.572119,0.627882,-0.414605,-0.526585,-0.221523
0.864551,0.222425,0.509577,0.437658,0.0586586,0.22457
0.486458,-0.0463442,-0.536256,-0.358898,0.266591,-0.252671
0.875764,-0.134056,-0.0113962,0.275698,-0.136241,0.0076015
1.47574,-0.481524,0.0396478,0.404081,0.13046,0.066933
0.215323,-0.647501,-0.816056,-0.294436,-0.427042,-0.223884
0.898072,-0.935989,1.45011,0.232297,-0.389746,0.0541093
-1.16232,-1.81386,1.98548,0.256771,-0.0904586,0.226274
-1.65824,-1.27456,0.753352,-0.346064,-0.176476,0.28101
-1.92912,-0.276195,1.95065,0.114648,0.011572,0.35977
-0.201644,1.12016,1.97204,0.0562861,0.235103,0.0796808
2.25543,1.61998,0.972573,0.0364323,0.446797,-0.26931
-0.460999,0.0778553,-0.634913,0.17639,0.0775818,-0.243822
-0.850742,-0.946572,-2.04523,0.194122,0.12983,-0.248853
0.176516,-1.17617,-2.12224,0.227979,-0.299536,-0.119188
-0.885077,-1.68772,-0.860681,0.164231,-0.514404,0.0251229
-4.35954,-1.66515,-0.0327879,-0.147116,-0.837521,0.358593
-0.701468,-0.155794,2.11755,-0.0158784,-0.213236,-0.0200091
0.28666,0.847155,2.56139,-0.127407,-0.131896,0.134144
0.00411272,0.851743,2.07314,-0.145197,0.416032,-0.381864
0.708804,0.259755,0.612687,-0.0775684,0.536456,-0.320847
0.476368,-0.553029,-0.556228,0.383086,0.468315,-0.119352
-4.55866,-1.23952,-3.06132,0.370881,-0.133263,-0.164958
-7.63415,-0.0194191,-3.38003,-0.629211,-0.675371,0.184
6.55381,-1.23773,3.7405,0.537583,-0.357438,0.21034
7.11786,2.20797,1.9982,0.239118,0.0482767,-0.243131
-0.397072,1.04942,0.294219,-0.153198,0.254132,-0.579558
-2.42605,-0.184758,-0.382823,0.0307905,0.420255,-0.341317
-1.96242,-0.790484,-1.53977,0.460492,0.661391,-0.0113509
4.25747,-0.444584,-2.5939,0.275794,0.324949,0.078171
3.47955,-0.580224,-2.7482,0.160036,-0.29709,0.206862
0.720486,-1.20032,-0.881533,0.217987,-0.632616,0.404711
-1.04954,-1.00155,1.15186,0.136979,-0.609836,0.503316
-1.20234,0.826847,2.97282,0.327105,-0.203712,0.323397
1.95007,2.13266,3.34344,0.0869893,0.212283,-0.0506024
1.51493,1.54462,2.19985,0.0485349,0.454528,-0.378465
1.85687,0.485659,0.520534,0.0569389,0.677075,-0.498147
2.66193,-0.614353,-0.14702,0.524332,0.579545,-0.450934
2.3662,-2.06167,-0.682157,0.602877,0.392836,-0.0614429
0.364989,-2.72198,-1.89909,0.0845364,0.213847,0.374625
0.51025,-2.46131,-1.85488,0.0788218,-0.0295314,0.810679
0.391966,-0.830696,-0.938087,0.211407,-0.0780464,1.09037
0.178431,1.47274,-0.0776457,0.113217,-0.367471,0.766281
-0.638726,3.16145,0.448931,0.0811538,-0.0354432,0.0634604
-0.728628,2.32184,-0.283628,0.451729,-0.0556383,-0.370202
0.671897,-0.311533,-0.56067,-0.0921628,0.123574,-0.813255
0.671664,0.752896,-0.434314,-0.20788,0.241439,0.102993
1.98457,0.539167,-0.942808,-0.263235,0.114338,0.0792005
2.91366,0.0828109,-0.606327,0.381475,0.0423688,0.394256
-1.38607,-0.168606,0.0583012,0.197089,-0.315551,0.447392
-0.811887,0.752634,0.695617,-0.291738,0.235261,-0.36894
-0.161815,0.505249,0.496576,-0.633685,-0.0108202,-0.28247
0.704775,-0.169229,0.625909,0.205813,0.216238,0.415587
2.52397,-1.16673,-0.0334645,0.0287151,0.318641,0.171535
0.0782855,-0.505848,-0.754584,0.513472,-0.1797,0.175882
0.483661,-0.698689,-1.24019,-0.231187,-0.236925,0.0442064
-0.142358,-0.354579,-0.558076,-0.449913,-0.453235,0.0264624
-1.44151,-0.936043,0.0562907,0.0983951,-0.00786626,-0.102652
-0.428877,-0.962053,-1.02112,-0.345844,0.185453,-0.148705
1.46024,-0.22416,0.98144,0.39118,-0.636165,0.200085
-0.775234,0.926951,1.62097,0.268121,0.184899,0.160236
0.404128,1.75642,1.37332,-0.0634574,-0.348252,-0.0470351
0.597535,1.42745,1.00644,-0.167816,0.00788808,-0.142423
-0.717567,-0.226597,0.146242,-0.0325989,0.28582,-0.187977
-0.327581,-1.54777,-0.309517,0.0102646,0.251197,-0.019878
0.248734,-1.2033,-0.337589,0.58222,-0.617633,-0.318531
1.06643,-1.12395,-0.777028,0.172977,0.18381,-0.014433
0.304198,-0.0377151,-0.480519,-0.505079,-0.380491,-0.0190423
-0.0623805,0.448901,-0.0108174,-0.235779,-0.0420376,-0.130827
0.417095,-0.0260822,-0.523156,0.117167,0.32837,-0.277716
1.91958,1.26507,-0.484919,0.460001,0.235795,0.339151
0.366395,1.81846,0.321385,-0.116458,-0.516594,0.635921
-0.273541,1.02898,0.789244,-0.0708843,-0.227455,0.161858
-1.44903,0.143258,0.361372,-0.188793,-0.0322163,-0.142143
-1.0344,-0.324293,0.154531,0.0250098,0.176083,-0.264585
0.32059,-0.811737,0.095413,-0.058448,0.228836,0.0387048
0.109011,-1.30858,-0.305868,0.305322,-0.372729,0.107339
0.264131,-0.908306,-0.908396,0.0707992,0.0224133,0.0644698
0.331781,-0.0644111,-0.219992,-0.482116,-0.283245,0.00149888
-0.402104,0.34586,0.11927,-0.189903,-0.188194,-0.184431
0.648376,-0.188021,-0.598524,0.285686,0.350599,-0.21986
1.22473,0.935555,-0.292228,0.511817,-0.109825,0.709552
0.551506,2.3653,0.973949,-0.167884,-0.143157,0.593667
-0.174603,1.11618,0.833116,-0.267764,-0.357559,0.120361
-1.19576,-0.121928,0.157855,-0.154147,0.051021,-0.0834757
-0.981494,-0.376387,-0.246335,0.0681157,0.231291,-0.0129491
0.878827,-0.729056,-0.143537,0.0727187,0.533954,0.0611792
2.32121,-1.18676,-0.186706,0.1009,-0.526485,0.10927
1.25053,-1.05704,-0.705413,0.11084,0.126176,0.0497845
0.0908832,-0.0567479,-0.348,-0.416811,-0.487121,0.178838
-0.208268,0.816259,-0.0556632,-0.252726,-0.217999,-0.0734617
0.703102,0.0216565,-0.681631,0.321367,0.566822,-0.335182
0.550044,0.716974,-1.10699,0.397563,0.211535,0.339382
-0.243529,2.17328,0.703875,-0.03812,-0.243223,0.598404
-0.306092,1.61014,1.05385,-0.104796,-0.14973,0.11729
-1.37467,0.491263,0.455028,-0.169835,0.040357,-0.15087
-0.964444,-0.235944,-0.0289237,-0.045527,0.201604,-0.119148
-0.24342,-0.727181,-0.0609512,-0.00482059,0.319102,-0.00122833
2.33674,-0.547106,0.127637,0.203005,-0.0255966,0.213404
-0.0581141,-0.786626,-1.23123,0.298271,0.0437238,0.0589772
1.21763,-0.72061,-0.797111,-0.220198,-0.276018,0.268968
-0.194792,0.047737,-0.132898,-0.296242,-0.354052,0.058193
-0.689094,0.292797,0.371989,-0.0779548,0.152082,-0.0364318
0.496522,0.237831,-0.388653,-0.202608,0.104523,-0.311701
1.55869,1.33447,-0.209597,0.46327,0.107985,0.328739
-0.101431,1.77083,0.700549,0.000781178,0.142309,0.291095
-0.914644,0.652671,0.707431,-0.191019,-0.319527,0.0637196
-0.834337,0.00872956,0.225008,-0.0583955,0.153025,-0.121019
-0.143626,-0.300455,0.17854,0.0205276,0.2415,0.0169928
0.61852,-0.602169,-0.18514,0.162893,0.514111,0.114742
0.723434,-0.617094,-0.392724,0.0115944,-0.443438,0.14462
1.09552,-0.444866,-0.625309,0.0524673,0.298169,0.0256876
-0.127716,-0.137525,-0.118026,-0.357075,-0.446236,0.100784
-1.5383,0.115677,0.317582,-0.166757,-0.0953665,-0.216841
0.9981,0.250293,-0.579985,0.26302,0.503349,-0.183162
1.23701,0.874762,0.194095,0.188526,-0.299132,0.341863
0.538072,1.59053,0.471352,-0.157221,-0.0898623,0.290462
-0.181127,1.09817,0.630728,-0.133843,-0.28685,0.152776
-0.649218,0.662131,0.452399,-0.0513439,0.0791466,-0.163383
0.30584,0.281464,0.262302,0.00703537,0.14951,-0.0815597
0.319555,-0.650971,0.0749303,0.240465,0.358658,0.105841
0.918323,-0.921692,-0.28313,-0.0651045,-0.213073,0.0681723
1.21366,-0.178785,-0.780543,0.0871865,0.244824,0.0373101
0.783976,0.184383,-0.262187,-0.301772,-0.316595,0.204217
-0.301399,0.609792,0.183367,-0.184518,-0.243033,-0.161146
1.43674,0.60871,-0.57749,0.28909,0.407079,-0.0902207
0.986232,0.604737,-0.41021,0.162236,0.0834242,0.0717099
0.449926,1.37452,0.441668,-0.293399,-0.221597,0.290817
-0.54063,0.979289,0.378375,-0.165762,-0.0558605,0.133431
-1.36915,0.0751506,0.173935,-0.0386996,0.0261215,0.00154674
-0.893655,-0.102968,0.220197,-0.0500734,0.0883847,-0.119275
-0.684099,-0.701376,0.300249,0.202258,0.0789169,-0.141652
0.786404,-1.25909,-0.0444419,-0.00320524,0.406527,0.10007
0.547659,-0.310307,-0.676594,-0.0737045,-0.078561,0.393394
1.03114,-0.165966,-0.390727,-0.101673,-0.0143233,0.0775022
0.530317,0.480463,-0.128293,-0.247601,-0.34252,0.185566
-0.329241,0.452271,0.172496,-0.0726679,0.0220963,-0.0871388
0.731099,-0.0475718,-0.457415,0.157759,0.184344,-0.0641969
0.675682,0.340947,-0.262488,0.142121,0.0461575,0.26121
0.169291,0.92979,0.434654,-0.209696,-0.153004,0.450015
-0.711381,0.494038,0.311611,-0.0651246,-0.0829867,0.119342
-1.05061,0.0717476,0.114387,-0.0899846,0.122129,-0.00726151
-0.653,0.0352234,0.253833,-0.118192,0.0594342,-0.140926
-0.262612,-0.262044,0.281051,0.018592,0.13577,-0.0214047
0.194368,-0.311362,0.32803,0.000733852,0.217761,0.0238972
1.66697,-0.592274,-0.141107,0.117368,0.0772104,0.124232
0.153138,-0.244083,-0.38988,0.0774756,-0.244301,0.20929
0.302372,-0.193117,-0.291867,-0.156166,-0.25646,0.143995
-0.425767,0.0553628,0.0304976,-0.240928,-0.17583,-0.0213074
-0.588263,0.056562,-0.0452295,-0.0536998,0.134845,-0.15967
0.348328,-0.570942,-0.617529,-0.0344003,-0.0250779,-0.23746
0.0532806,0.248813,-0.195526,0.438978,-0.0739678,0.437073
-0.711533,0.679265,0.411047,-0.121601,-0.0637746,0.35256
-1.24308,0.0314257,0.323228,-0.135503,-0.131613,0.0420765
-1.09917,0.0409893,0.00364341,-0.0395358,0.0865878,-0.0844545
-0.73622,-0.0976966,0.157795,-0.0736369,0.131578,-0.0757022
-0.173124,-0.384492,0.317572,0.0248806,0.0038901,-0.0356565
0.674186,-0.651241,0.389548,0.458668,0.139554,0.187371
1.07357,-0.520384,-0.485118,-0.175652,-0.450068,0.143953
-1.02378,-1.14158,-0.370139,0.0850356,-0.173484,0.149997
-1.11558,-0.907335,-0.300729,-0.233753,-0.142451,-0.140394
-1.37827,-0.983783,-0.301488,-0.202314,0.0002051,-0.266966
0.527463,-0.480503,-0.798623,0.231093,0.0770875,-0.387571
-0.225186,0.330902,0.262766,0.0684061,-0.437395,0.0495184
-0.62371,0.879313,0.57571,0.00369436,0.222554,0.213369
-1.03758,0.350635,0.391674,-0.199212,-0.0686351,0.0148274
-1.01794,-0.0474039,0.102141,-0.00933671,0.0255965,-0.138003
-0.499566,-0.136238,0.487131,-0.135173,0.161407,-0.0854504
0.0233436,-0.27717,0.649524,0.0177838,0.112932,-0.0596788
1.59239,-0.706011,-0.2381,0.122124,0.427788,0.057694
-0.298756,-0.590707,-0.266055,0.241747,-0.493428,0.44019
1.03608,-0.307383,-0.64417,-0.187991,-0.0396779,0.00733411
-0.132348,0.250036,-0.0251611,-0.258656,-0.373527,0.00984681
-0.831517,0.332502,0.0246557,-0.0492709,0.256754,-0.140861
0.416766,0.211526,-0.828352,0.0977782,0.0516731,-0.265167
0.835719,0.572913,0.0240395,0.23569,-0.0667543,0.0914082
-0.618723,0.857013,0.513739,0.0779547,0.200268,0.247036
-1.27511,0.266703,0.570058,-0.176617,-0.19968,0.0421712
-1.03714,0.0324249,0.276402,-0.0853857,0.0385543,-0.194422
-0.341523,-0.270402,0.277078,0.115892,0.230752,-0.0876594
0.287048,-0.89033,0.101731,0.173433,0.496516,0.0621188
1.08457,-0.71087,-0.485798,0.101194,-0.349686,0.0215983
0.280368,-0.627133,-0.940411,-0.034943,0.181456,-0.00595927
-0.0244173,-0.363064,-0.360576,-0.263521,-0.362962,0.0873389
-1.04738,0.0888409,0.319063,-0.183809,-0.121522,-0.126687
0.707117,0.0590645,-0.658933,0.150988,0.520061,-0.199932
0.806735,0.675256,-0.420714,0.44659,-0.305981,0.570906
0.0647445,1.20134,0.786694,-0.172948,-0.445978,0.4442
-0.186541,0.810928,0.552963,-0.118295,-0.113207,0.118909
-0.973501,0.303825,0.265083,-0.0618711,-0.0275455,-0.11022
-0.436915,0.161809,0.464038,-0.119386,0.0900312,-0.0613797
-0.258082,-0.617461,0.293385,0.154369,0.150501,-0.0733747
1.54656,-1.11903,0.0477171,0.247126,0.200049,0.0996889
0.219465,-0.445055,-0.925202,0.136248,-0.12573,0.0415714
0.536429,-0.415559,-0.629335,-0.277034,-0.304688,0.119087
-0.41412,0.112967,-0.0570864,-0.308006,-0.28766,-0.00313705
-0.243554,0.385375,-0.159278,0.0559688,0.350625,-0.139841
0.746698,0.246468,-0.946676,0.263827,0.17773,-0.162006
0.431584,0.441124,0.525015,0.0543929,-0.432851,0.137588
-0.603524,0.64201,0.528086,-0.0177663,0.244631,0.140013
-1.26013,0.294391,0.582012,-0.152897,-0.0924416,0.0213826
-0.793518,0.0886715,0.343383,-0.0828246,0.0739906,-0.192269
-0.0865301,-0.309949,0.300391,0.0356754,0.233862,-0.0632666
0.975397,-0.672522,-0.18403,0.323604,0.48588,0.097834
0.892262,-0.349865,-0.43477,0.0533342,-0.434421,0.281842
0.434178,-0.683632,-0.959993,0.00176197,-0.0206309,0.0520119
-0.199027,-0.0361815,-0.13693,-0.411661,-0.391204,0.040323
-0.552149,0.401521,0.084564,-0.190411,-0.00400525,-0.137076
0.582693,0.0591316,-0.446161,0.0789782,0.075228,-0.235811
0.984689,0.65478,0.14348,0.282948,-0.33749,-0.0232891
-0.531725,1.09962,0.753297,0.0586547,0.237716,0.269538
-1.3005,0.345467,0.818148,-0.219216,-0.270671,0.0386564
-1.11797,0.0144335,0.250927,-0.0791895,0.109741,-0.209499
-0.206172,-0.273652,0.259392,0.0693365,0.197409,-0.0312878
0.356724,-0.831729,-0.1566,0.143499,0.503167,0.0684212
0.564136,-0.599753,-0.469276,0.0821241,-0.336075,0.163699
0.681069,-0.455973,-1.11802,0.0160708,0.0622174,0.0476485
0.111894,-0.0012306,-0.298318,-0.382184,-0.439029,0.0669002
-0.258418,0.357681,0.0236964,-0.0858984,-0.0694667,-0.166614
0.786623,0.260159,-0.422635,-0.00713539,0.0617198,-0.16171
1.13753,0.811135,0.196458,0.316306,-0.400531,0.0886125
-0.068335,1.40372,0.773248,0.0876776,0.103555,0.302519
-0.997325,0.587941,0.860972,-0.193151,-0.374478,0.0403833
-1.29771,0.156117,0.362254,-0.0655941,0.0991624,-0.212397
-0.446989,-0.207456,0.22128,0.0598094,0.18995,-0.0742117
0.232376,-0.849732,-0.155847,0.16536,0.461122,0.0495243
0.965803,-0.788497,-0.290002,0.12892,-0.290687,0.232827
0.126113,-0.926111,-0.845438,0.0736931,0.0232894,0.0401081
-0.141018,-0.109664,-0.0933463,-0.518678,-0.451788,0.0396706
-0.858655,0.444324,0.126032,-0.183298,0.0166073,-0.19699
0.735167,-0.0729728,-0.43359,0.163106,0.0832998,-0.293771
0.937498,0.697439,-0.00163199,0.268266,-0.24886,0.107656
-0.775622,0.924181,0.722883,0.0117613,0.292682,0.26864
-1.28283,0.24969,0.688893,-0.245513,-0.358281,0.0281581
-1.03306,0.0229357,0.092354,-0.0832543,0.108846,-0.186788
-0.260652,-0.39174,0.206444,0.0823917,0.236285,-0.0297709
0.732216,-0.710635,-0.193137,0.0795132,0.541597,0.0320358
1.01969,-0.368066,-0.313361,0.201588,-0.416935,0.349949
0.803431,-0.535936,-0.919529,0.0277058,-0.0543957,0.0663573
0.219255,-0.0449666,-0.219959,-0.457173,-0.462813,0.0338804
-0.656714,0.317526,0.0609954,-0.106169,-0.0219716,-0.0913836
0.743778,-0.084705,-0.325324,-0.0943835,0.0258022,-0.188763
0.65068,0.746669,-0.189087,0.523685,-0.200878,0.386134
-0.561892,1.04002,0.851542,-0.0333867,-0.0275823,0.292518
-1.6231,0.189231,0.867133,-0.25724,-0.30795,0.0213671
-1.34248,-0.0556332,0.21742,-0.0777903,0.172376,-0.238143
-0.0573708,-0.24078,0.400263,-0.0137743,0.230669,-0.0206152
0.664699,-0.704238,-0.04508,0.126902,0.581592,0.092621
0.95442,-0.409535,-0.272293,0.0949867,-0.397285,0.426667
0.667491,-0.580476,-1.15229,0.00704104,0.0616741,0.0156085
0.463587,-0.00575738,-0.218295,-0.492981,-0.493567,0.0778297
-0.419251,0.470629,0.0881638,-0.130609,0.0117361,-0.0829169
0.568493,0.00275759,-0.53084,-0.0243497,0.0654823,-0.274107
0.893182,0.617591,0.211029,0.327234,-0.2861,-0.0641087
-0.360185,1.38686,0.970194,0.0502027,0.306752,0.209739
-0.921335,0.682608,0.927057,-0.256262,-0.318571,0.0328884
-1.01001,0.22191,0.350465,-0.0572751,0.076519,-0.224058
-0.0579632,-0.248221,0.35422,0.0644766,0.300032,-0.0206
1.09963,-0.881233,-0.152404,0.306048,0.496187,0.159482
0.515666,-0.349516,-0.615672,0.176778,-0.376264,0.209021
0.47697,-0.737969,-0.807386,-0.193401,-0.290098,0.106444
-0.242213,-0.113802,-0.240096,-0.448484,-0.293116,-0.000672579
-0.444318,0.0833033,-0.373213,0.00279033,0.265656,-0.168497
0.170348,0.0755382,-0.932657,0.246247,0.0710872,-0.0623612
-0.348558,0.732322,0.541623,0.134076,-0.373094,0.280513
-0.694309,0.844192,1.12434,-0.102056,0.187286,0.124092
-0.852319,0.690035,0.841109,-0.180639,-0.010112,-0.0578026
-0.167121,0.259674,0.0922942,0.0664777,0.298167,-0.106074
0.0386411,-0.164105,0.000828983,0.10129,0.370702,-0.0467694
0.992159,-0.828822,-0.84215,0.386236,0.217199,0.0974262
0.249684,-0.843092,-1.19211,0.456666,-0.182767,-0.0468682
0.235971,-0.276817,-1.07291,-0.469284,-0.482761,0.0728673
-0.621217,0.0397546,-0.307743,-0.364455,-0.466064,-0.180769
0.186139,0.119091,-0.688419,0.0840725,0.373764,-0.1613
0.620107,0.0431958,-0.713413,0.316958,0.235052,0.16736
-0.27066,0.204309,0.382392,-0.0738132,-0.307199,0.480555
-1.80609,-0.0033144,0.805254,-0.105354,-0.307959,0.273729
-0.819304,-0.189168,0.457928,-0.28449,0.0483847,-0.039453
-0.956573,-0.899036,0.313588,-0.0368298,0.0297664,-0.0523763
-0.521568,-0.993988,-0.119319,-0.0235528,0.417235,0.10193
1.04045,-0.098784,-0.462287,0.232772,0.125659,0.160023
0.68372,0.0441236,-0.487884,0.18361,0.00199813,-0.00875938
0.774625,0.304798,-0.312595,-0.339726,-0.388625,0.104547
-0.0769976,0.627843,0.126066,-0.247485,-0.148244,-0.0309547
0.425735,0.703182,-0.388681,0.0354768,0.417568,-0.113363
0.327916,0.338199,-0.616423,0.166704,0.185538,-0.154317
0.778838,0.769669,0.791956,0.120163,-0.503389,0.203207
-0.372964,1.37714,1.26441,0.134882,0.239269,0.0281222
-0.616191,0.881448,0.580092,-0.179676,-0.143526,0.00965261
-0.68955,0.343989,0.408474,-0.179386,0.0501013,-0.269134
-0.16169,-0.28338,0.454693,0.0760685,0.361382,-0.134832
1.98143,-0.592475,-0.0175446,0.348064,0.287532,0.168137
0.160567,-0.613357,-0.548891,0.275861,-0.180101,0.154259
0.979656,-0.638485,-0.386475,-0.201306,-0.360141,0.132123
-0.301283,0.0819341,0.0148105,-0.426076,-0.52488,-0.0204291
0.131543,0.31592,-0.448417,0.100161,0.318438,-0.268667
0.455045,0.0294081,-0.747493,0.220301,0.257039,-0.162677
-0.654656,0.427011,0.269573,0.0578341,-0.395807,0.347278
-1.47862,0.414731,0.681034,0.00471598,0.0903864,0.0954676
-1.51448,0.124251,0.311514,-0.332155,-0.039315,-0.0310361
-0.796457,0.0354244,0.114161,-0.0561466,0.106539,-0.161015
-0.219815,-0.65909,0.362299,0.142405,0.320447,-0.0644367
1.90264,-1.01608,-0.0940661,0.238418,0.338901,0.119516
-0.487507,-0.672466,-0.717878,0.355512,-0.0375217,0.00551915
1.18377,-0.481058,-0.583489,-0.314164,-0.360134,0.0976713
-0.742402,0.186583,-0.105959,-0.529369,-0.412723,-0.0152952
-0.35276,0.00749996,-0.225567,0.204725,0.497572,-0.219064
0.401619,0.233874,-1.03528,0.203283,0.220449,-0.0379676
-0.0393092,0.676667,0.344798,0.0257732,-0.394675,0.303707
-0.804458,0.723941,0.813615,-0.0429849,0.0997268,0.0897179
-0.915059,0.635744,0.54049,-0.232859,-0.026792,0.00387931
-0.533158,0.104314,0.471464,-0.0335275,0.0329501,-0.110124
-0.73459,-0.635295,0.261113,0.129769,0.227392,-0.118163
1.63692,-0.95314,0.0784338,0.174629,0.243325,0.158187
-0.309393,-0.690638,-0.996391,0.403702,0.054855,-0.0561076
0.626841,-0.703124,-0.662417,-0.353586,-0.409323,0.109156
-1.10512,-0.166565,-0.131158,-0.456671,-0.363303,-0.0254676
-0.230111,-0.0234164,-0.472578,0.320963,0.725323,-0.294651
0.502996,0.309387,-1.11988,0.313214,0.195088,0.134691
-0.650151,0.568392,0.860472,0.00546372,-0.483239,0.359171
-0.877674,0.858064,0.977528,-0.107993,0.0468719,0.00752985
-0.741798,0.836789,0.498326,-0.26556,0.0177457,-0.0321116
-0.562358,-0.0531462,0.176821,-0.00364298,0.15941,-0.142668
-0.403912,-0.830279,-0.0090681,0.0392753,0.312912,-0.0782491
1.06995,-1.15167,-0.387147,0.231564,0.209159,0.198491
0.57661,-0.516792,-0.737058,0.403822,0.00719041,-0.101308
0.706904,-0.199741,-0.507838,-0.50408,-0.486043,0.0550065
-0.405243,-0.147895,-0.258167,-0.272233,-0.296065,-0.082942
0.153845,-0.341934,-0.655297,0.370136,0.567023,-0.242462
-0.0306303,0.0841122,-1.15248,0.121728,0.0911076,0.0956147
-1.01066,0.544209,0.695795,0.258287,-0.602126,0.436313
-1.35001,0.342053,1.31638,-0.106337,0.0973477,0.136031
-1.29712,0.401805,0.596323,-0.261193,-0.00674725,-0.0895286
-0.874226,-0.17751,0.334004,-0.0867963,0.212744,-0.0683548
-0.353158,-0.653693,0.291133,-0.00634074,0.324643,-0.107566
2.35182,-0.584331,0.136468,0.26665,0.185281,0.182578
0.57964,-0.259152,-0.948225,0.354517,0.0857188,-0.0305361
1.1532,-0.204292,-0.684812,-0.397406,-0.416606,0.115193
-0.249739,0.00313778,-0.252279,-0.388876,-0.390703,-0.0329667
-0.405429,-0.440562,-0.522356,0.277366,0.499331,-0.187901
-0.0476437,-0.117124,-0.953342,0.19315,0.104472,-0.200487
-0.0388828,0.250794,0.5529,0.28152,-0.406382,0.236709
-1.1937,0.425049,0.94223,-5.67436e-05,0.171477,0.124751
-1.40315,0.295403,0.715143,-0.259632,-0.0692277,0.0214946
-1.03268,0.0365487,0.368394,-0.162203,0.100545,-0.187135
-0.263268,-0.414311,0.462142,0.0699089,0.356762,-0.200636
1.94821,-0.619095,-0.146464,0.279675,0.481258,0.0777247
0.540695,-0.266638,-0.73881,0.180714,-0.187988,0.177537
1.20747,-0.216047,-0.702402,-0.202095,-0.282138,0.114928
-0.453573,-0.0510144,-0.195645,-0.419195,-0.475792,-0.0510164
-0.283524,-0.0627728,-0.530996,0.132039,0.405267,-0.156832
0.105559,0.100947,-0.837258,0.247049,0.0453713,-0.178575
0.286532,0.518743,0.741546,0.219984,-0.28186,0.0865735
-1.0969,0.493121,0.882232,0.00631511,0.204311,0.156563
-1.43838,0.316721,0.669741,-0.258829,-0.147013,-0.00504434
-0.969363,0.00139069,0.314542,-0.13939,0.0913405,-0.180925
-0.622817,-0.66736,0.330898,0.117076,0.30504,-0.151125
1.18968,-0.949639,0.0358468,0.288827,0.212194,0.0651022
0.667723,-0.367795,-0.98461,0.342541,-0.0470937,0.0515825
0.817225,-0.433979,-0.693761,-0.285885,-0.40571,0.106666
-0.139011,0.0977688,-0.198667,-0.386633,-0.315849,-0.0265421
-0.00563399,0.250965,-0.248704,0.030612,0.258757,-0.121336
0.44412,0.148601,-0.850602,0.205803,0.0203078,-0.147712
-0.0855648,0.720258,0.52513,0.111866,-0.368112,0.250316
-1.3269,0.443232,0.958897,0.0254142,0.0638803,0.138473
-1.5398,0.307246,0.545467,-0.230385,-0.054885,-0.0431244
-1.0282,-0.13697,0.370749,-0.0419183,0.161795,-0.254205
-0.569394,-0.736557,0.192375,0.111547,0.259553,-0.191486
1.33969,-1.14767,-0.226723,0.227802,0.21604,0.142698
0.273023,-0.552699,-1.07027,0.342868,0.146231,-0.0395263
0.924986,-0.272264,-0.673426,-0.364767,-0.473925,0.133767
-0.365785,0.206469,-0.0321697,-0.401356,-0.340779,-0.0645263
0.130314,-0.146063,-0.698611,0.446042,0.636803,-0.287325
0.226711,0.146679,-1.05222,0.253493,0.0109261,0.275552
-0.48214,0.700222,0.913606,0.0151523,-0.557804,0.345847
-1.15084,0.39415,0.879557,-0.219002,-0.12314,0.0690497
-1.10167,0.448501,0.514952,-0.165537,0.0108637,-0.0987239
-0.337864,0.0487861,0.415854,0.00114179,0.168658,-0.136445
-0.223155,-0.865612,0.185716,0.0609081,0.303955,-0.0179551
1.38234,-0.903875,-0.502733,0.156764,-0.188952,0.00454843
0.739617,-0.51149,-1.22778,0.20286,0.211185,0.052928
0.914268,-0.0838921,-0.493853,-0.426484,-0.510875,0.136994
-0.0833747,0.452105,0.1346,-0.357856,-0.302025,-0.0441309
0.345489,-0.0377005,-0.500344,0.449928,0.644881,-0.295799
-0.0975278,-0.143604,-1.35113,0.443441,0.0446912,0.335706
-0.62525,0.607737,0.854261,-0.000588715,-0.554578,0.414528
-1.41462,0.201677,0.890682,-0.219614,-0.161793,0.0812265
-1.18117,0.349578,0.474537,-0.191259,0.0095858,-0.140103
-0.0467599,0.148667,0.282003,0.0234601,0.22486,-0.0866978
-0.194739,-0.915602,-0.045186,0.139328,0.37588,-0.0148888
1.44596,-0.770865,-0.497861,0.19823,-0.204654,-0.0714962
0.525599,-0.709379,-1.01051,0.163683,0.156402,0.0330473
0.502173,-0.00165123,-0.38939,-0.555645,-0.582757,0.0889595
-1.19097,-0.220826,-0.0849963,-0.189479,-0.153179,-0.272784
1.03199,-0.358623,-0.452634,0.370124,0.3959,-0.2668
0.686464,0.659034,0.434355,0.100474,-0.662597,0.0556144
-0.375536,1.31431,1.00093,0.10305,0.297998,0.332962
-1.44281,0.50292,0.972509,-0.349814,-0.342925,-0.0504042
-0.739719,0.363119,0.345679,-0.133641,0.160268,-0.218602
-0.197411,-0.0907613,0.441148,0.0989466,0.260947,-0.0934175
0.81485,-0.628966,0.0698319,0.219991,0.524231,0.0960349
2.06736,-0.123047,-0.52357,0.136602,-0.149876,0.241536
0.91999,-0.495739,-0.898111,-0.0891722,-0.130239,0.166604
0.109929,0.0486508,-0.318931,-0.449828,-0.452855,0.0498292
-0.720476,-0.0348529,-0.215826,-0.10652,0.0190991,-0.286442
0.59125,-0.444472,-0.592437,0.157752,0.178276,-0.295045
0.594029,0.53354,0.288895,0.305174,-0.338507,-0.00814325
-0.752481,1.02084,0.882391,0.0680088,0.257871,0.228938
-1.67462,0.315787,0.821244,-0.311987,-0.342213,-0.0462456
-1.00462,0.135551,0.260472,-0.125355,0.211173,-0.246413
-0.0463477,-0.283552,0.491234,0.0954853,0.337409,-0.0529926
1.26808,-0.695298,0.0632497,0.192072,0.593117,0.1755
1.21222,-0.0511175,-0.448743,0.119749,-0.284368,0.227277
0.954315,-0.345674,-0.886087,-0.164099,-0.169391,0.131967
0.067614,0.190236,-0.215683,-0.489872,-0.435164,-0.0187427
-0.253654,0.195787,-0.206486,-0.0010398,0.231009,-0.182174
0.336503,-0.128017,-1.08068,0.298324,0.132309,-0.205862
0.219259,0.404941,0.567441,0.216951,-0.408775,0.0959697
-0.829137,0.798449,0.788599,0.00760031,0.343396,0.140428
-1.08956,0.562351,0.690582,-0.287575,-0.136059,-0.0142213
-0.834588,-0.0284984,0.251854,-0.0130822,0.18346,-0.234308
0.0237828,-0.756133,0.138093,0.137217,0.282914,-0.0466127
1.22244,-1.12838,-0.390817,0.219215,0.0155544,-0.134539
0.782401,-0.382804,-0.884786,0.125721,0.171058,0.115491
0.649307,-0.112451,-0.385454,-0.530303,-0.567861,0.0700054
-1.05536,0.0376803,0.158271,-0.237263,-0.133403,-0.231154
0.64562,-0.1848,-0.542831,0.178117,0.181009,-0.276766
0.585368,0.344068,0.308258,0.118896,-0.416914,0.136714
-1.06865,0.652748,0.95734,0.225104,0.264427,0.206951
-1.96177,0.258536,0.779511,-0.355031,-0.369863,-0.0688022
-0.815896,0.429197,0.28159,-0.216945,0.154943,-0.221995
-0.219267,-0.435586,0.289209,0.274605,0.474885,-0.150606
1.53042,-0.797604,-0.195991,0.166179,0.475704,0.0606059
0.782515,-0.180598,-0.708312,0.336879,-0.288633,0.266288
0.886644,-0.460604,-0.815001,-0.235998,-0.256222,0.122759
-0.439607,-0.0638357,-0.0819889,-0.547542,-0.464811,-0.105016
-0.178223,-0.476868,-0.737105,0.15416,0.645813,-0.224441
0.593561,0.208113,-0.8768,0.287113,0.163622,0.182069
-0.384446,1.01209,0.744173,-0.024423,-0.546848,0.297821
-0.563826,0.911041,0.948881,-0.197293,0.0736144,0.104247
-0.816496,0.63138,0.526573,-0.255875,-0.0341036,-0.10006
-0.538018,0.0872412,0.524922,-0.00440371,0.0940467,-0.173628
-0.288515,-0.784664,0.223454,0.0625523,0.261147,-0.105005
1.23386,-0.900571,-0.471215,0.285037,-0.199197,0.0381731
0.691772,-0.525322,-1.09767,0.262111,0.223123,0.022074
1.02708,0.169394,-0.5517,-0.572032,-0.619048,0.0655875
-0.870276,0.194035,0.127029,-0.24958,-0.268665,-0.117939
1.10991,-0.328891,-0.358617,0.36986,0.503815,-0.374249
0.521762,0.466587,0.0707857,0.160374,-0.521475,0.348234
-0.395271,1.474,1.01126,0.0239666,0.0505537,0.353662
-1.3584,0.443257,0.971395,-0.31102,-0.364091,-0.0222735
-1.30335,0.262464,0.171303,-0.157236,0.0952978,-0.239467
-0.108635,-0.333465,0.247536,0.132179,0.349902,-0.0850534
1.06448,-0.940961,-0.1947,0.198023,0.619695,0.164248
0.76663,-0.369071,-0.411715,0.19028,-0.263464,0.348394
1.27728,-0.534278,-1.03963,-0.0876486,-0.113323,0.202809
0.360962,0.200649,-0.141698,-0.580985,-0.556553,-0.070607
-0.211864,0.124437,-0.163099,-0.0959461,0.257614,-0.200991
0.287626,0.0316677,-0.972165,0.0568646,-0.0699781,-0.245602
0.430069,0.900898,0.31773,0.366631,-0.29917,0.251251
-0.664826,1.19962,0.8586,-0.0951214,0.316035,0.15151
-1.43415,0.513601,0.866616,-0.28361,-0.249159,-0.0100093
-0.893724,-0.0369572,0.220148,-0.0784355,0.164916,-0.238487
-0.523896,-0.569442,0.168125,0.0712017,0.283026,-0.164245
1.40439,-1.1105,-0.00543907,0.304726,0.365773,-0.0396904
0.294477,-0.537854,-0.848387,0.538338,0.0409812,0.0213549
0.634105,-0.23475,-0.781668,-0.342387,-0.461908,0.0968899
-0.522108,0.103354,-0.0680844,-0.512838,-0.261649,-0.0911795
0.178181,-0.209899,-0.927127,0.396026,0.75772,-0.328773
-0.0280453,0.187296,-0.892374,0.287367,-0.123694,-0.0212448
0.175377,0.976525,0.882259,0.248538,-0.398917,0.267266
-1.27383,0.677397,0.927162,-0.228612,0.128557,0.0799664
-1.63193,0.304155,0.461999,-0.247874,-0.0863197,-0.105026
-0.611669,-0.122332,0.24591,0.0771666,0.154768,-0.141642
-0.373433,-0.917643,0.187299,0.0986611,0.348331,-0.0789803
1.29717,-1.10817,-0.507752,0.245131,-0.161589,-0.0675796
0.204527,-0.711225,-1.12334,0.255259,0.187984,0.135713
0.681154,0.0323145,-0.446259,-0.542668,-0.573246,0.0880749
-0.73555,0.256765,0.059979,-0.34382,-0.148006,-0.206111
0.7909,-0.333919,-0.564583,0.263898,0.479905,-0.205041
0.55622,0.358076,-0.215648,0.372632,-0.489567,0.36847
-0.367495,1.27809,1.16597,0.0396837,-0.112317,0.474602
-1.53314,0.377381,1.03909,-0.321452,-0.288604,0.00231409
-1.07381,0.298458,0.346273,-0.210289,0.094352,-0.21229
0.101489,0.0209002,0.0771928,0.124589,0.399496,-0.0529813
0.333285,-0.724327,-0.197833,0.139803,0.495171,0.0318447
1.1515,-0.542832,-0.489615,0.253492,-0.293508,0.103177
0.630095,-0.431609,-0.999935,0.0248446,0.0816625,0.0774965
0.329415,0.225189,-0.229863,-0.571453,-0.671923,0.02783
-0.46618,0.368317,0.142157,-0.109609,-0.0378351,-0.0515324
0.699154,-0.197689,-0.180287,0.0486585,0.112288,-0.28134
0.40234,0.191084,-0.271832,0.296994,-0.39528,0.519546
-0.845308,1.19231,0.849067,0.0622631,-0.312865,0.472096
-2.0945,0.0202141,0.775056,-0.254104,-0.269681,0.107067
-1.35154,0.169868,0.341118,-0.171075,0.105757,-0.240825
-0.373045,-0.300223,0.0903354,0.0997975,0.393827,-0.195914
-0.0763225,-1.15941,-0.074614,0.187175,0.261963,-0.0653689
0.876835,-0.943907,-0.55442,0.216587,-0.2326,0.109813
0.397127,-0.758247,-0.923017,0.0695633,0.227234,-0.0355862
0.396086,-0.0771516,-0.268417,-0.529716,-0.579787,0.151957
-0.991658,0.333563,0.242254,-0.170208,-0.13763,-0.184887
0.974413,-0.0168286,-0.56494,0.190963,0.633574,-0.287408
0.463041,0.432636,-0.102201,0.155198,-0.461967,0.287076
-0.530216,1.25384,0.803337,-0.0015232,-0.132798,0.382342
-1.45804,0.3625,0.787281,-0.279206,-0.294597,0.0355035
-0.963432,0.332477,0.231863,-0.13826,0.121195,-0.244866
-0.0570012,-0.0269206,0.243555,0.129103,0.284416,-0.0952702
0.42008,-0.79146,-0.115391,0.17572,0.495653,-0.00032568
1.40896,-0.736775,-0.376212,0.179177,-0.209964,0.217204
0.559794,-0.669999,-0.975863,0.0403189,0.0317786,0.090659
0.15642,-0.0258977,-0.208013,-0.491264,-0.492207,0.0216824
-0.811621,0.204692,-0.00291645,-0.302659,-0.0306656,-0.221358
0.969454,-0.0477348,-0.397931,0.275999,0.33994,-0.176884
0.549497,0.663535,-0.0157972,0.152004,-0.460567,0.272985
0.0669733,1.60676,0.950022,-0.0378746,0.132348,0.265978
-1.28551,0.581647,0.812576,-0.362767,-0.363318,-0.0379014
-0.370022,0.324579,0.257863,-0.0610858,0.198049,-0.183333
-0.209708,-0.134324,0.276198,0.060643,0.287356,-0.0302699
1.43625,-0.57296,-0.00238094,0.108181,0.739644,0.114266
1.64902,-0.170616,-0.53359,0.179172,-0.199009,0.341558
1.24456,-0.194701,-0.942885,-0.0793512,-0.0389812,0.0964497
0.645111,0.385696,-0.239291,-0.427749,-0.487856,0.0174442
-0.670068,0.412101,0.194415,-0.101908,-0.0740079,-0.294254
0.483314,-0.258001,-0.940729,0.0899602,0.29531,-0.115138
0.48984,0.434683,0.127229,0.228883,-0.405137,0.0790648
-0.556533,1.32299,1.03853,0.112255,0.333027,0.20954
-1.02953,0.655965,0.834674,-0.286905,-0.399185,-0.0490259
-0.694189,0.251379,0.24142,-0.0170033,0.16186,-0.220678
-0.203173,-0.713387,0.224377,0.0471894,0.346202,-0.116829
1.26964,-1.31359,-0.440392,0.164001,0.176436,0.151968
-0.0387142,-0.704695,-0.923715,0.484955,0.217911,0.00630283
0.684484,-0.301843,-0.732827,-0.356651,-0.553257,0.116439
-0.797393,0.142911,0.0904485,-0.453644,-0.409488,-0.0439153
0.100622,-0.138524,-0.859531,0.395656,0.817244,-0.272506
-0.000441677,-0.159778,-0.706472,0.218494,0.00783896,0.174696
-0.449431,0.638599,0.479363,-0.0318777,-0.596462,0.435961
-0.743445,0.502426,0.998671,-0.0364156,-0.00565654,0.134722
-0.901244,0.473884,0.683193,-0.281001,-0.04313,0.0133404
-0.584827,-0.168086,0.164906,-0.0331271,0.175846,-0.0944794
-0.259569,-0.497259,0.219239,-0.0199571,0.260428,-0.0262241
1.05311,-0.791887,-0.260258,0.151223,0.401826,0.0987654
0.433679,-0.613632,-0.399153,0.190379,-0.437594,0.0665528
0.992558,-0.386221,-0.506544,-0.165344,-0.0237205,0.0986611
-0.561078,-0.0115669,-0.053401,-0.242549,-0.35596,-0.0748643
-1.07042,0.266535,0.335649,-0.159225,-0.0633179,-0.0854472
0.168194,-0.0747907,-0.502271,0.0357671,0.143082,-0.23107
-0.300841,0.0382307,0.0811884,0.323237,-0.208737,0.180728
-0.846199,0.630434,0.263949,0.00593615,0.0482868,0.273614
-1.18478,-0.114462,0.346509,-0.0681312,-0.17042,0.0610538
-1.01986,-0.0762259,0.186656,-0.0659464,0.044317,-0.106539
-0.479204,-0.327902,0.421087,-0.0242391,0.0749646,-0.132003
-0.686288,-0.590603,0.187739,-0.0510184,0.26463,-0.14604
0.930852,-0.747196,0.155892,0.192609,0.219485,-0.0074358
0.546617,-0.416746,-0.567242,0.117465,-0.362511,0.0109282
0.179543,-0.492013,-0.720156,-0.027868,0.101934,-0.0523297
0.123056,0.0359009,-0.332651,-0.396648,-0.404285,0.016598
-1.2437,0.0208619,-0.0301179,-0.178158,-0.084235,-0.108582
-0.739369,-0.635039,-0.730427,0.0455872,0.339318,-0.241827
-1.09455,-0.857375,-0.248127,0.303415,-0.438307,0.124939
-3.40681,-1.28903,0.235769,0.229265,0.133177,0.267402
-2.94429,-1.23292,0.0524976,-0.169355,-0.0527491,0.137146
-2.66415,-1.44175,0.0665969,-0.274214,0.185842,-0.0694585
-1.75654,-1.48076,0.141164,-0.232374,0.364703,-0.166055
0.147757,-0.806163,-0.131317,-0.0189131,0.517329,0.0173751
0.172048,-0.695299,-0.811053,0.233866,-0.101624,-0.479603
0.548697,-0.394421,-0.458027,-0.000664115,-0.0622121,0.112924
0.365555,-0.138898,-0.134857,-0.350026,-0.341893,-0.0421293
0.218825,0.476312,0.497812,-0.435412,-0.210166,-0.132825
0.992477,0.621852,-0.59641,0.0750399,0.642444,-0.226554
0.269457,0.437329,-1.23936,0.370229,0.075227,-0.0048154
0.0480844,0.428488,0.698294,0.198743,-0.585926,0.175927
-0.555519,0.278776,0.938933,0.0421941,0.258833,0.0770949
-1.04431,0.349474,0.622821,-0.24453,0.0456665,-0.0993665
-0.870445,0.088595,0.463372,-0.153001,0.0795176,-0.199809
-0.580007,-0.502339,0.253108,0.36609,0.216079,-0.14889
1.26478,-1.04548,0.102155,0.105092,0.403407,0.133682
1.2559,-0.290482,-0.984397,0.103322,0.0305679,0.0460086
1.09357,-0.388251,-1.17031,-0.185844,-0.315563,0.127949
0.302926,0.0751691,-0.371332,-0.26455,-0.205162,0.0391231
-0.185806,0.20423,0.0255958,-0.0786806,0.00192809,-0.215252
0.140954,-0.0492502,-0.381608,0.0135925,0.420427,-0.225002
-0.163666,0.127614,-0.119688,0.329003,-0.52235,0.348945
-1.07318,0.776367,0.550337,-0.121832,-0.0549139,0.437221
-0.881488,0.173676,0.787589,-0.244969,-0.216477,0.123004
-0.517638,0.309816,0.208045,-0.177216,0.178178,-0.0862739
-0.0163967,0.366858,0.458855,-0.168066,0.106173,-0.0886855
-0.368962,0.0413541,0.597586,0.158214,0.132562,-0.0982485
0.898636,-0.540708,0.321285,0.245212,0.435056,0.112166
1.64591,-0.229093,-0.748767,0.0213575,0.0095031,0.0879316
0.87382,-0.399827,-1.04323,-0.116747,-0.126211,0.225035
0.676744,-0.00596066,-0.538329,-0.246638,-0.239849,0.0438111
-0.181405,0.429822,0.307023,-0.288775,-0.129673,-0.12574
0.8176,0.158935,-0.5808,0.291035,0.545177,-0.135147
-0.142149,0.140468,-0.524199,0.259066,-0.222364,0.4721
-0.763695,0.917667,0.722874,-0.171754,-0.337276,0.36236
-0.215364,0.697984,0.736803,-0.255096,0.0488128,0.0338057
-0.374811,0.53961,0.281167,-0.139554,0.0562121,-0.0704694
-0.279038,0.289346,0.453813,-0.11289,0.15883,-0.0760294
-0.560908,-0.112891,0.767955,0.233922,0.235978,-0.0220296
1.36862,-0.816709,0.1802,0.111163,0.442385,-0.0295185
0.973666,-0.449951,-0.969238,0.127298,-0.140033,0.187502
0.949502,-0.276425,-0.950404,-0.216965,-0.309016,0.177302
0.0761546,0.0423483,-0.398491,-0.313602,-0.286931,-0.0499305
-0.156538,-0.179963,-0.358077,0.0635164,0.40912,-0.291705
-0.0370777,-0.233184,-0.71215,-0.0108434,0.234425,-0.279935
-0.215433,0.313802,0.366709,0.465439,-0.296124,-0.0606473
-0.663931,0.969739,0.794627,-0.0603491,0.335638,0.0909396
-0.619854,0.669537,0.745096,-0.304534,-0.0663589,0.0120726
-0.803307,0.337668,0.326838,-0.0230317,0.0574965,-0.117304
0.00463615,0.00703636,0.550468,0.126103,0.353107,-0.0361224
0.814724,-0.918496,0.212574,0.175903,0.565496,-0.0212263
1.1956,-0.36611,-0.587761,0.189772,-0.214618,0.316364
0.778423,-0.458334,-0.911477,-0.225561,-0.248182,0.138373
-0.313614,-0.0861731,-0.340669,-0.403784,-0.474874,-0.036649
-0.406545,-0.148967,-0.133948,-0.0427767,0.162046,-0.148383
0.890109,-0.0389988,-0.981293,0.224089,0.355317,-0.270428
-0.128628,0.279632,0.548681,0.2232,-0.614553,-0.135639
-0.815247,0.965564,0.891417,0.0550411,0.334618,0.0996354
-0.852286,0.357842,0.665681,-0.375527,-0.0526226,-0.0460135
-1.20684,0.0686718,0.266857,-0.0601702,0.077593,-0.193189
-0.234087,0.0412516,0.625887,0.0907512,0.173614,-0.0464773
0.388721,-0.474343,0.371127,0.318775,0.556903,0.042093
2.22837,-0.206136,-0.609418,0.0807257,-0.0537184,0.153522
0.99726,-0.49361,-0.946434,-0.0653058,-0.186637,0.191483
0.0166763,-0.254542,-0.576602,-0.348603,-0.40719,-0.00328022
-0.585429,-0.031777,0.00203447,-0.181338,-0.0258995,-0.221147
0.92382,-0.344761,-0.0383696,0.263427,0.310091,-0.210667
-0.5626,-0.0147799,0.0922236,0.232622,-0.615109,0.296651
-0.818368,0.63344,1.01487,-0.0538011,0.0441955,0.362623
-1.56808,-0.152599,0.811205,-0.301427,-0.180395,0.00589359
-1.15099,0.0526742,0.303935,-0.150738,0.127927,-0.0459503
-0.463479,0.168161,0.419747,-0.0622128,0.141918,-0.0877014
-0.342617,-0.345012,0.493371,0.181849,0.374966,-0.0605181
1.79615,-0.714692,-0.280788,-0.063726,0.104009,-0.0312074
0.923109,-0.387098,-0.898095,0.238117,-0.0106238,0.127127
0.324752,-0.210019,-0.673782,-0.292169,-0.423118,0.0879731
-0.503347,-0.116918,-0.187503,-0.269463,-0.266905,-0.0207785
-0.0368214,0.046791,-0.660986,0.0638203,0.549576,-0.250072
0.910799,0.156918,-1.11826,0.279484,0.25428,-0.0330236
-1.09694,-0.0463746,0.419232,0.178036,-0.599146,0.277305
-1.23307,0.217668,0.588741,-0.114722,0.256952,0.0398649
-0.967671,0.138739,0.448352,-0.239162,0.00619459,-0.0433654
-0.862119,0.253675,0.270631,-0.0620302,0.0582625,-0.0791847
-0.221077,0.327606,0.697542,-0.0804719,0.128525,-0.0533667
-0.412493,-0.340752,0.763492,0.239285,0.437061,-0.144181
1.01523,-0.765269,0.0498678,0.0264205,0.207574,-0.0759321
1.22958,-0.303171,-1.05208,0.120505,-0.0453111,0.120629
1.29523,-0.136099,-1.03865,-0.178181,-0.318657,0.135251
0.484678,0.155973,-0.28469,-0.214676,-0.281608,0.00504625
0.239451,0.0805216,-0.0936005,-0.112765,0.195722,-0.293661
0.592949,-0.136756,-0.579759,0.0601538,0.153696,-0.231898
-0.306075,0.178764,0.256671,0.521866,-0.211289,-0.00272387
-0.933804,0.802908,0.66118,-0.0126203,0.205285,0.230774
-0.961988,0.461224,0.700813,-0.403108,-0.0146369,0.0127357
-0.889209,0.323991,0.165343,-0.0144619,-0.00502312,-0.133468
-0.203993,0.353181,0.612076,0.0173192,0.213427,-0.0207355
-0.508048,-0.665343,0.83235,0.300501,0.398498,-0.0736971
1.16194,-0.761033,-0.226842,-0.0902722,0.0931225,-0.0689988
0.941126,-0.374284,-0.968527,0.0569226,-0.0437542,0.125361
0.638511,-0.343211,-0.884184,-0.167202,-0.372869,0.0899773
-0.00914524,-0.027802,-0.301868,-0.248157,-0.273048,0.0101758
-0.207204,0.0022025,-0.495795,-0.0942855,0.312536,-0.214206
0.833021,-0.156033,-0.7858,0.269608,0.244532,-0.318276
-0.62318,0.0204282,0.1933,0.284706,-0.557984,0.197348
-1.2418,0.422058,0.679489,-0.146196,0.0794013,0.20648
-1.3678,0.0112753,0.668839,-0.257774,-0.0745983,-0.0205009
-0.857692,0.178123,0.267579,-0.0712934,0.152677,-0.0816519
-0.337034,0.211741,0.525069,-0.0827188,0.157267,-0.0571617
-0.12983,-0.290891,0.717426,0.351515,0.380792,0.00238585
0.854009,-0.780062,0.163719,-0.14768,0.146377,-0.311126
1.79318,-0.0481324,-0.89066,0.113618,0.210548,0.309459
1.20129,-0.249952,-0.835055,-0.0746592,-0.39651,0.0624788
0.658969,0.122896,-0.403648,-0.291995,-0.224077,-0.0327787
1.26133,0.345938,-0.221454,-0.180131,0.0452647,-0.268513
0.782309,-0.407332,-0.255033,0.123787,0.100287,-0.218729
-1.37162,-0.371654,-0.376908,0.477929,-0.187505,0.678442
-2.30302,0.343038,0.620457,-0.0985297,-0.0713843,0.389304
-1.57018,-0.0385733,0.586305,-0.263481,0.0389128,0.0669752
-0.878468,0.192033,0.0810366,-0.179887,0.0173604,-0.0894783
-0.547685,0.175795,0.197229,0.00316447,0.0834963,-0.0993764
-0.11812,0.0710655,0.596231,0.155108,0.176503,-0.0874394
0.506007,-0.497884,0.84156,0.24943,0.494941,0.0228827
1.77842,-0.257855,-0.700013,-0.160754,-0.0209261,-0.0415905
1.09388,-0.292435,-0.900473,0.00665087,0.0824625,0.232311
1.04921,0.0258241,-0.692498,-0.111256,-0.225223,0.0654992
0.214573,0.150863,-0.204185,-0.306972,-0.293537,-0.0836958
-0.0500232,-0.0223679,-0.53037,0.0190512,0.382428,-0.166897
0.455326,-0.073746,-0.869363,0.288915,0.271794,-0.196094
-0.582195,-0.123347,0.424132,0.199835,-0.567145,-0.0126051
-1.21601,0.343316,0.598519,-0.0653028,0.347462,0.108118
-1.05664,0.177143,0.575857,-0.257055,-0.0643344,0.0450284
-0.720712,0.255778,0.18986,-0.103077,0.0372937,-0.068795
-0.373183,0.206452,0.569658,-0.0846151,0.103402,-0.038856
-0.443327,-0.370473,0.715052,0.258878,0.296569,-0.122845
1.04827,-0.75563,-0.112464,-0.00343776,0.221051,-0.0119193
1.19841,-0.124262,-1.08895,0.0194052,-0.0755821,0.124037
0.77873,-0.271949,-0.960794,-0.114418,-0.445841,0.106966
-0.0385947,0.0232869,-0.0762915,-0.258401,-0.24409,-0.0715624
-0.0637322,0.0201581,-0.257525,-0.0819081,0.216126,-0.280063
0.491876,-0.0609698,-0.953538,0.498916,0.305148,-0.176727
-0.939247,-0.241241,0.454475,0.203202,-0.517423,0.0188287
-1.58486,-0.00875579,0.641807,-0.0498747,0.278672,0.0910069
-1.24761,0.03788,0.444283,-0.243768,0.00230992,0.0323782
-0.820638,0.222813,0.338658,-0.0962229,0.06264,-0.157014
-0.128975,0.245658,0.583098,-0.019374,0.229498,-0.107663
0.19549,-0.711499,0.463523,0.357159,0.431992,-0.0956167
1.5177,-0.435371,-0.879444,0.0450161,0.109847,-0.0518301
0.997303,-0.498809,-1.05552,-0.0987934,-0.138331,0.210587
0.485912,-0.0781115,-0.484607,-0.24156,-0.343129,0.0456202
-0.624022,0.220591,0.150304,-0.275072,-0.239008,-0.159905
0.743986,-0.0984388,-0.860709,0.417822,0.599788,-0.192371
-0.154233,-0.070242,-0.280937,0.336068,-0.526818,0.593547
-0.54449,0.457692,1.00219,-0.182283,-0.256065,0.417641
-1.11622,0.0728268,0.802296,-0.214078,-0.215628,-0.0227227
-0.836373,0.405907,0.37792,-0.130821,0.0839808,-0.0766898
-0.3549,0.127697,0.483223,-0.0656635,0.121279,-0.0162122
-0.219145,-0.577103,0.598961,0.112455,0.211256,-0.0754453
1.19704,-0.799277,-0.479047,0.115852,0.0692506,-0.0147754
0.845325,-0.313435,-1.22445,0.145521,0.187672,-0.00934923
0.681183,-0.0218173,-0.5499,-0.306138,-0.549714,0.124126
-0.36858,0.375829,0.112363,-0.303663,-0.31873,-0.0141155
-0.562028,0.126958,-0.185106,0.169729,0.454116,-0.180675
0.432234,0.30729,-0.559467,0.399866,0.0126173,0.186746
0.181668,0.108126,0.568562,-0.202924,-0.213697,0.0661728
-1.04539,0.108025,0.333022,-0.0961623,0.198412,0.161451
-1.14809,0.309213,0.620756,-0.122575,-0.195763,-0.040699
-0.509337,0.340668,0.650445,-0.121498,0.127354,-0.0800841
-0.334694,-0.583295,0.170442,0.168808,0.360955,-0.186853
1.29397,-1.07934,-0.310637,0.332443,0.301294,-0.0231119
0.628021,-0.224967,-1.03105,0.142694,-0.316699,0.169575
0.547707,-0.363325,-0.886207,-0.216384,-0.313661,0.0567926
0.0287715,0.0636572,0.0957649,-0.335017,-0.349467,-0.0893308
0.306108,0.29667,-0.285709,0.0572699,0.380486,-0.0900958
-0.0529299,0.0948353,-0.884902,0.268986,0.181244,-0.139237
-0.178602,0.126511,0.479878,0.0340059,-0.164194,-0.0261933
-0.542987,0.637768,0.323209,-0.0509725,0.482738,0.174737
-0.662035,0.33868,0.568423,-0.134765,-0.238974,0.0613986
-0.759522,0.230225,0.387549,-0.0782863,0.0730935,-0.142542
-0.109729,0.274415,0.497641,-0.0141342,0.170631,0.0134603
-0.116099,-0.497349,0.664308,0.283167,0.296199,-0.115851
1.06466,-0.683255,-0.0330862,-0.0937583,0.136772,-0.0580783
0.78294,-0.212342,-0.852628,0.0242143,-0.102197,0.138734
1.01356,-0.202901,-0.984939,-0.138094,-0.314284,0.107426
0.248171,0.166833,-0.213424,-0.244204,-0.360907,-0.0769454
-0.120301,0.0425393,-0.124323,-0.104053,0.208388,-0.317406
0.0941368,-0.0883321,-0.970845,0.396826,0.347583,-0.151265
-0.879033,-0.0336147,0.156251,0.301836,-0.291764,0.00186574
-1.35392,0.290314,0.243709,-0.226782,0.131859,0.308351
-1.49002,-0.241882,0.487886,-0.0928395,-0.195321,0.0622941
-1.49186,-0.371687,0.263144,-0.124467,0.141049,-0.163121
-0.156812,0.00837481,0.372109,-0.0756456,0.226269,-0.0173182
0.211335,-0.1825,0.654865,0.154887,0.367427,-0.0483414
1.41614,-0.471653,-0.159941,-0.0268374,0.0422057,0.00113475
1.20247,-0.0646536,-0.966861,-0.0153307,0.068984,0.1001
1.00856,-0.0517712,-0.830947,-0.161683,-0.407985,0.161575
0.404886,0.389152,-0.0201964,-0.272224,-0.276122,-0.0354159
-0.16782,0.202201,0.061292,-0.0207782,0.25774,-0.240642
-0.520197,-0.110284,-0.750783,0.373272,0.204638,-0.182885
-1.0831,0.223094,0.101231,0.253207,-0.0971925,0.0229388
-0.764661,0.523988,0.54032,-0.207492,0.0266263,0.157087
-0.670448,0.197174,0.352191,-0.115251,-0.00885338,-0.101905
-0.745614,0.196163,0.404891,-0.039056,0.0120584,-0.155872
0.0236025,-0.00136025,0.493023,0.0600441,0.264673,-0.142321
0.19002,-0.761476,0.370391,0.351632,0.327052,0.0609637
1.40777,-0.656688,-0.790488,-0.134022,-0.0103288,-0.103019
1.04997,-0.318976,-0.835561,0.0622239,0.0855438,0.191681
0.611257,0.0293306,-0.486476,-0.261002,-0.395287,0.0129168
-0.346576,0.200181,0.196335,-0.301369,-0.118164,-0.191371
0.235466,-0.0182748,-0.532436,0.443944,0.442056,-0.186809
-0.951609,-0.262337,-0.120573,0.383746,-0.406295,0.49098
-0.777603,0.317471,0.660312,-0.324905,-0.258904,0.17268
-1.02869,0.094209,0.288284,-0.108189,0.172935,0.0935872
-0.818652,0.194126,0.254164,-0.129505,0.00277302,-0.0477048
-0.635055,0.144961,0.488633,-0.04397,0.138251,-0.175099
0.0855273,-0.320732,0.4962,0.203203,0.212682,-0.141169
0.902939,-0.985453,0.0531954,0.230813,0.319234,0.11327
1.01908,-0.294453,-0.88304,-0.0684117,-0.300076,0.207149
1.1939,-0.270083,-0.954966,-0.139104,-0.226213,0.156922
-0.0302241,0.112739,-0.0590934,-0.245176,-0.386749,-0.0920903
-0.319177,0.0192181,0.178638,-0.125002,0.0703099,-0.301299
-0.0273206,-0.0798392,-0.421844,0.332758,0.250867,-0.187301
-1.05835,0.257099,0.316712,0.319117,-0.336602,0.337848
-0.529307,0.504636,0.682221,-0.226949,-0.092162,0.062685
-0.626878,0.241878,0.317332,-0.103748,0.0255286,-0.0311877
-0.271915,0.18308,0.296789,-0.0670128,0.0686143,-0.0606692
0.0306816,0.204088,0.519692,-0.126858,0.173634,-0.0522074
0.339169,-0.349638,0.441293,0.196136,0.211554,-0.0513983
1.02054,-0.785355,-0.148018,0.0303863,0.0822794,0.0420022
1.07456,-0.143295,-1.03352,0.0108532,0.0378863,0.0645351
0.955873,-0.229479,-0.843126,-0.158907,-0.419466,0.110844
-0.250733,0.00220197,-0.057192,-0.179619,-0.31195,-0.0113066
-0.752451,0.111036,0.342808,-0.0716897,0.10347,-0.261044
-0.181307,0.126885,-0.814599,0.464268,0.385883,-0.137093
-0.921818,-0.00911243,0.315316,0.229702,-0.336301,-0.064749
-1.04871,0.366685,0.521227,-0.132496,-0.0547279,0.0713022
-0.568302,0.350396,0.392844,-0.0360587,-0.0412914,-0.055773
-0.505568,0.218386,0.300541,-0.117668,0.0636489,-0.149234
0.027678,0.208362,0.496107,-0.12658,0.212688,-0.113704
-0.0323885,-0.471765,0.411513,0.221842,0.139009,-0.126102
1.06754,-0.926902,-0.389328,0.12683,0.210122,0.138463
1.10858,-0.225269,-1.07267,0.0260031,-0.0890476,0.141405
0.91645,-0.281612,-0.791043,-0.156008,-0.417954,0.161981
-0.288989,0.0713592,0.182147,-0.32157,-0.328789,-0.129544
-0.359594,0.10126,0.00250525,-0.0345843,0.349746,-0.148228
-0.533758,-0.361511,-0.567566,0.358298,0.0453619,-0.0641196
-1.09481,-0.0153405,0.209508,0.0701187,0.0409963,0.132816
-0.934965,0.329322,0.609281,-0.249209,0.0812394,0.212052
-0.82172,0.0567996,0.353859,-0.0512579,-0.0506166,-0.126752
-0.673416,0.177993,0.534228,-0.0850142,0.074854,-0.159445
-0.22377,-0.184235,0.485085,0.140819,0.267083,-0.141629
0.776142,-0.738442,0.262467,0.277912,0.425479,0.145326
1.9431,-0.264317,-0.62632,-0.09771,-0.188712,0.105294
1.15336,-0.215794,-0.805566,-0.0583597,0.00693595,0.117919
0.610936,0.12089,-0.46513,-0.193403,-0.370523,0.0452861
-0.588269,0.305771,0.134622,-0.269983,-0.0154471,-0.253945
0.162181,0.190467,-0.680142,0.339598,0.361887,-0.140289
-0.608425,0.275993,0.100163,0.30209,-0.554514,0.486287
-0.52254,0.297047,0.778882,-0.228057,-0.286487,0.149558
-0.888057,0.110038,0.487966,-0.151165,-0.016978,0.00596726
-0.4289,0.319452,0.301308,-0.10928,0.123434,-0.0590063
-0.253419,0.278803,0.58708,-0.110151,0.147018,-0.0400356
-0.185199,-0.608978,0.457033,0.289272,0.184083,-0.00602674
1.04958,-0.834236,-0.541659,-0.0388067,0.071972,-0.0228037
1.3945,-0.142487,-0.916392,0.0484061,0.0108187,0.140666
0.844568,-0.142126,-0.755594,-0.196325,-0.441639,0.138199
-0.449305,0.0640491,0.105392,-0.258132,-0.245369,-0.105955
0.113345,0.0265962,-0.751197,0.157565,0.555515,-0.162923
-0.215595,-0.204188,-0.605866,0.283771,-0.220423,0.160595
-0.988248,-0.308269,0.699256,0.0262655,-0.406922,0.106749
-1.06365,-0.0675769,0.441194,-0.0980294,0.171505,-0.0059334
-0.865347,0.118575,0.383298,-0.120157,0.0149978,-0.0145245
-0.552621,0.20242,0.458499,-0.125361,0.0979813,-0.107252
-0.0246224,0.175423,0.433453,-0.00207663,0.186339,-0.097437
0.248814,-0.325119,0.599795,0.284318,0.328627,-0.0226524
1.49239,-0.555703,-0.412711,-0.110271,0.07873,-0.033289
1.12046,-0.136996,-0.769596,0.0409435,0.0171642,0.221366
0.636077,-0.123889,-0.674448,-0.114323,-0.359728,0.0646366
0.0125069,0.155259,0.0901928,-0.242283,-0.289193,-0.0811585
0.135295,-0.0469597,-0.361124,0.00104505,0.33725,-0.151238
-0.260281,-0.444726,-0.54937,0.0430921,-0.072877,-0.277891
-0.828608,-0.138977,0.100233,0.512215,-0.151374,0.235655
-1.03492,0.268801,0.34911,-0.110734,0.260102,0.179468
-0.98132,0.132444,0.614322,-0.171113,-0.126013,0.0162997
-0.267176,0.503434,0.536386,-0.0682206,0.151885,-0.0920955
-0.0121667,0.325494,0.468778,-0.0877631,0.235223,-0.136089
0.290691,-0.281427,0.313281,0.269686,0.327213,-0.0598836
1.21885,-0.648129,-0.305424,-0.0846791,-0.0103362,0.0122868
0.459042,-0.306822,-0.789774,0.0425984,-0.00977081,0.1252
0.587808,-0.230295,-0.701659,-0.149909,-0.298377,0.0520871
-0.113349,0.164953,0.0255917,-0.278241,-0.343008,-0.0395594
-0.028986,0.0745193,-0.381302,0.0454501,0.35291,-0.168417
0.225525,-0.0191784,-1.0304,0.420946,0.150522,0.138466
-1.50494,-0.384493,0.583204,0.014885,-0.724209,0.348372
-1.3174,-0.320771,0.636668,0.0130347,0.0112454,0.0826834
-1.27903,-0.368641,0.384454,-0.188572,0.0626714,-0.0975777
-1.02298,-0.50613,0.316821,-0.0588156,0.0910576,-0.0637047
-0.419266,-0.148949,0.45929,-0.113121,0.211024,0.0450057
0.047909,0.27328,0.519837,0.168383,0.476544,-0.162344
1.917,0.0516547,0.184694,-0.0104955,0.157123,-0.106673
1.47531,0.162961,-0.917913,0.00669014,-0.276586,0.206179
1.02165,-0.219882,-1.03403,0.00452244,-0.236329,0.085029
0.705844,0.307062,-0.252217,-0.307629,-0.41203,-0.045936
0.0765137,0.360726,-0.156608,-0.0790684,0.118102,-0.2777
0.673362,-0.0654331,-0.419248,0.225456,0.12437,-0.23166
-0.461463,0.0831717,0.335456,0.349243,-0.454822,0.0229649
-1.24781,0.55947,0.721173,-0.101624,0.299452,0.203097
-1.27427,0.0815448,0.712778,-0.261981,-0.135393,0.0330443
-0.87565,0.146309,0.227914,-0.0759535,0.112438,-0.0986418
-0.175765,0.0733301,0.522861,-0.0100717,0.202871,-0.0824376
0.131794,-0.496329,0.327764,0.202236,0.313436,0.0318886
1.4488,-0.579007,-0.689413,0.118472,-0.0454194,-0.210954
1.01715,-0.298699,-0.802713,0.0188698,-0.0476779,0.113559
0.491419,0.138014,-0.412942,-0.277817,-0.435508,0.108664
-0.28265,0.394972,0.164787,-0.256182,-0.303217,-0.0599416
0.170702,-0.00214111,-0.856496,0.28358,0.592158,-0.186174
-0.61107,-0.233676,-0.632778,0.158164,-0.159125,-0.0313941
-0.806098,-0.0943846,0.528745,0.189504,-0.137514,0.0468477
-0.792828,0.202608,0.471856,-0.126994,0.3116,0.0789541
-1.11308,0.0282891,0.400945,-0.146992,-0.0608646,-0.0191891
-0.743759,0.0248097,0.450101,-0.0516762,0.0923693,-0.183166
0.0523259,-0.0152122,0.64225,0.0395063,0.211161,-0.0768647
0.877658,-0.477697,0.249468,0.264651,0.550385,0.0125167
2.23562,-0.204859,-0.788998,0.0036267,-0.137875,0.154179
0.853042,-0.507158,-1.01423,0.0224015,-0.123455,0.169395
0.695591,0.0995707,-0.493027,-0.232886,-0.263882,-0.0112481
-0.042536,0.156405,-0.0239123,-0.239019,-0.0523764,-0.27493
0.885612,-0.219867,-0.640454,0.420697,0.218445,-0.129552
-0.455576,-0.454382,0.341416,0.159365,-0.612218,0.0357589
-1.46984,0.036992,0.702051,-0.043642,0.205234,0.351054
-1.13643,-0.0675629,0.679167,-0.179306,-0.0490545,0.0331374
-0.55268,0.183299,0.362171,-0.142833,0.114886,-0.036656
-0.392429,-0.09148,0.4724,-0.180011,0.177611,-0.149407
-0.412853,-0.43631,0.287267,0.051369,0.146407,0.138761
0.0661533,-0.245078,0.376027,0.145051,0.44651,0.0239134
1.92256,0.168882,-0.359282,-0.122335,-0.0469415,-0.0592033
1.34619,-0.259492,-1.04207,0.0663611,0.112431,0.0934358
0.286566,-0.0661151,-0.761964,-0.142035,-0.394996,0.0503294
0.146984,0.539439,0.119193,-0.285669,-0.230686,-0.0717572
0.46817,0.346774,-0.795646,0.169364,0.515281,-0.207006
0.298347,0.236188,-0.780332,0.36393,-0.019231,0.033199
-1.04798,0.300657,0.767607,0.131709,-0.60831,0.23705
-0.708189,0.445147,0.834474,-0.0598038,0.181419,-0.0124319
-0.785833,0.172782,0.529783,-0.183179,0.0752518,-0.0224065
-0.89809,-0.103836,0.329642,-0.0223222,0.0312794,-0.0940083
-0.306827,-0.122435,0.56227,-0.0113793,0.0972093,-0.0224833
-0.00149025,-0.340814,0.338958,0.312394,0.413814,0.076593
1.81371,-0.370665,-0.549489,-0.0468895,-0.0858354,-0.14191
0.541667,-0.397357,-0.720194,0.0092442,-0.146271,0.125293
0.544354,-0.174899,-0.688268,-0.144866,-0.209303,0.0472493
-0.0861265,0.147924,0.0088086,-0.275615,-0.354952,-0.0605738
-0.0711021,0.160842,-0.602416,0.0853262,0.357705,-0.161198
0.201474,-0.228936,-0.674966,0.0576091,0.0862147,-0.262737
-0.870805,-0.0473824,0.0932628,0.519623,-0.198819,0.0568539
-1.3808,0.319076,0.432956,-0.0714008,0.159817,0.186749
-1.32423,-0.165325,0.550788,-0.197357,-0.0612718,0.0221016
-0.883202,0.0398715,0.236506,-0.0563539,0.0499817,-0.0928531
-0.263394,0.0106245,0.42879,-0.0603197,0.251836,-0.0451912
-0.212713,-0.325816,0.578534,0.210184,0.267546,-0.124701
1.24365,-0.614147,0.00856614,-0.0468867,0.169994,-0.127107
1.17178,-0.0614497,-0.721953,0.0283824,-0.225704,0.261891
0.914902,-0.284773,-0.849926,-0.0172428,-0.306769,0.0420747
0.682317,0.257065,-0.272765,-0.328508,-0.385131,0.0194074
0.0209854,0.110635,-0.199811,-0.165012,0.127549,-0.240878
0.647418,-0.141965,-0.723534,0.386692,0.233078,-0.224495
-0.904133,-0.158144,0.396003,0.0835989,-0.613874,-0.00650477
-0.965212,0.572129,0.375315,0.0174863,0.320729,0.0779524
-0.663591,0.365336,0.610206,-0.266537,0.0247989,0.00989532
-0.486767,0.33438,0.45592,-0.104483,-0.0288249,-0.0105627
-0.244588,0.183015,0.578732,-0.0380543,0.168941,-0.116315
-0.160654,-0.305629,0.561968,0.0940313,0.245603,-0.0336521
1.46625,-0.625977,-0.181637,0.0241885,0.182296,0.0799419
1.03618,-0.0954024,-0.78021,0.0741761,-0.107352,0.130714
0.666096,-0.156881,-0.750084,-0.240533,-0.328771,0.0750168
-0.31611,0.0342184,-0.116829,-0.289135,-0.358667,-0.0650802
-0.115969,0.019308,-0.641334,0.171077,0.496537,-0.116606
-0.288484,-0.13166,-0.881913,0.142725,-0.0942327,-0.198286
-0.612168,-0.458579,0.529156,0.585031,0.0429344,-0.0903494
-1.53594,-0.137518,0.62866,-0.106338,0.381235,0.124033
-1.20383,0.0847225,0.594731,-0.185435,-0.0873792,0.0461267
-0.937296,0.187817,0.431682,-0.13381,0.064177,-0.155799
-0.167667,0.0339599,0.475892,0.0421574,0.298396,-0.0870134
0.724141,-0.256272,0.638325,0.335175,0.441973,0.0611497
1.58759,-0.325718,-0.852973,-0.0652969,0.021495,-0.0412322
1.18881,-0.316876,-0.980632,-0.0484523,0.0655186,0.183792
1.02502,0.0163738,-0.757955,-0.153071,-0.298717,0.0808705
0.194594,0.328661,0.0332127,-0.303198,-0.22339,-0.12047
0.82873,0.06549,-0.812703,0.185198,0.47388,-0.114623
0.12852,-0.231268,0.30498,0.222622,-0.471565,0.0892897
-1.24404,0.426397,0.787738,0.0454401,0.132738,0.346212
-0.780178,0.356912,0.591763,-0.273314,0.00879556,0.0971792
-0.630468,0.383427,0.543111,-0.125992,-0.112035,0.00509191
-0.818547,-0.0188145,0.574565,-0.0347243,0.179697,-0.107912
-0.527863,-0.421402,0.632874,0.0424194,0.327622,-0.0780667
1.53737,-0.257882,0.428042,0.31067,0.361132,0.0126083
1.32987,-0.0540911,-0.845453,-0.094893,-0.326189,0.218223
1.17089,-0.244463,-1.0323,-0.0546857,-0.230123,0.0754333
0.364903,0.101926,-0.410043,-0.255221,-0.309307,-0.0141028
-0.264561,0.186423,-0.20098,-0.194317,0.155234,-0.224839
0.513458,-0.172788,-0.52587,0.263966,0.262326,-0.221967
-0.374187,0.132105,0.257178,0.307239,-0.552403,0.11857
-1.52967,0.270204,0.506272,-0.123146,0.090642,0.320141
-1.32826,-0.0791474,0.720897,-0.189762,-0.240705,0.0511022
-1.14792,0.19653,0.304025,-0.123503,0.091177,-0.107852
-0.375441,0.152271,0.478779,-0.0426136,0.264311,-0.0820805
0.0838182,-0.343088,0.661143,0.284309,0.287794,-0.0325433
1.32954,-0.592835,-0.348108,-0.101072,0.0984828,-0.101271
1.17872,-0.108229,-0.967023,0.0820199,0.028092,0.187663
1.0906,-0.100704,-1.0205,-0.126222,-0.430541,0.113487
0.0095848,0.0893205,-0.0382314,-0.294484,-0.344341,-0.074136
-0.159656,-0.0925173,-0.27874,-0.0186489,0.367531,-0.166709
0.0246051,-0.0499054,-0.944824,0.442852,0.289316,-0.223593
-0.46591,-0.158483,0.473781,0.224143,-0.324854,-0.146541
-1.24702,0.223143,0.574836,-0.0479233,0.427374,0.164655
-0.800904,0.324996,0.611914,-0.189623,-0.0640482,0.0188714
-0.427867,0.544033,0.49065,-0.14502,0.0407225,-0.111486
-0.0793471,0.258474,0.591245,0.115359,0.233044,-0.0704547
0.191485,-0.549636,0.519092,0.371837,0.425919,-0.0231702
1.49535,-0.515154,-0.700705,-0.0911363,-0.0932351,-0.121217
0.987411,-0.34544,-1.05675,0.0536724,0.0799472,0.181647
0.526088,-0.10571,-0.602876,-0.265368,-0.414387,0.055163
-0.478846,-0.0476595,0.0452374,-0.293267,-0.14384,-0.159808
0.527234,-0.179129,-0.705576,0.3267,0.455138,-0.258834
-0.307055,-0.101832,-0.867146,0.158534,-0.282695,0.307849
-1.3954,-0.252627,0.849879,0.0480981,-0.515894,0.131828
-1.40665,-0.245129,0.683778,-0.16445,0.177837,0.0400956
-0.866552,0.210119,0.489229,-0.143058,0.0212682,-0.00189352
-0.549862,0.347196,0.490533,-0.171184,0.0181282,-0.106946
-0.0759666,0.0775096,0.595744,0.183934,0.225899,-0.0580374
0.584054,-0.627551,0.213111,0.178581,0.493524,-0.0619575
1.88113,-0.273799,-0.698707,0.0538851,-0.0957983,0.107022
1.2682,-0.256231,-1.0301,-0.0272668,-0.113797,0.135531
0.981394,0.12708,-0.63007,-0.200215,-0.258256,0.0393387
-0.038152,0.369292,0.0530392,-0.273941,-0.223884,-0.120902
0.755641,-0.0547772,-0.636732,0.399095,0.328471,-0.200514
-0.339927,-0.311581,-0.598566,0.228249,-0.148069,0.172173
-1.61838,-0.486632,0.789763,-0.00267088,-0.55412,0.253334
-1.28405,-0.251626,0.749413,-0.0699014,0.147533,0.0437533
-0.778199,0.317557,0.509393,-0.165746,0.0477979,-0.00363994
-0.6314,0.291919,0.433988,-0.136644,0.0927764,-0.0466689
0.00398446,0.0316596,0.710204,0.0351579,0.18573,-0.0258795
0.757711,-0.335007,0.434286,0.238876,0.5526,0.0355345
1.81618,-0.104506,-0.708185,0.072283,-0.0337629,-0.0775852
1.10278,-0.246563,-0.930272,-0.0389339,-0.187919,0.151208
0.854711,0.191043,-0.620856,-0.188706,-0.189436,0.0726336
0.299803,0.515899,0.191628,-0.31055,-0.319183,-0.0138902
0.460094,0.17007,-0.730239,0.253744,0.504812,-0.115253
-0.338455,0.00995738,-0.874042,0.28549,-0.210116,-0.151046
-0.792336,-0.14554,0.768806,0.492891,-0.233675,0.00413144
-1.39162,0.0412103,0.66654,-0.221762,0.378402,0.131043
-0.975829,0.101621,0.505231,-0.136756,-0.0868359,0.013458
-0.716825,0.123821,0.34646,-0.1108,0.11816,-0.0710664
-0.307374,0.120264,0.590943,0.0725702,0.188074,-0.114144
0.670999,-0.514843,0.470962,0.309017,0.536033,-0.0218084
2.21591,-0.199544,-0.662869,-0.0255502,0.0223443,0.0366074
1.19823,-0.326405,-1.15717,-0.00909221,-0.053622,0.206524
1.07775,0.23879,-0.651565,-0.289729,-0.309116,0.0751162
-0.139101,0.371487,0.08937,-0.311381,-0.280487,-0.0761531
0.65776,-0.0429746,-0.688166,0.45143,0.473637,-0.114326
-0.622713,-0.349649,-0.749484,0.19938,-0.24349,0.433028
-1.53701,-0.0502858,0.929461,-0.00424188,-0.639806,0.391904
-1.25507,-0.179286,0.866388,-0.177723,0.0401708,0.0777315
-1.12555,0.149627,0.547394,-0.113068,-0.0307254,-0.0395192
-0.426306,0.401357,0.665347,-0.103641,0.143263,-0.201816
0.210456,0.133697,0.707088,0.0578753,0.166506,-0.0564617
1.29903,-0.473769,0.387027,0.308657,0.543717,0.0651975
1.76962,-0.239626,-0.793152,0.0857278,-0.210034,0.102918
0.90682,-0.386929,-0.894867,-0.124411,-0.0864962,0.145784
0.769846,0.18788,-0.467622,-0.225529,-0.372995,0.0842535
-0.34443,0.450387,0.172623,-0.20672,-0.182944,-0.0574955
0.205861,-0.0617488,-0.904201,0.233243,0.424706,-0.179522
-0.493174,-0.266743,-0.632457,0.211294,-0.224278,0.0997561
-1.07743,-0.507136,0.352644,0.112387,-0.400319,0.117938
-1.66481,-0.420533,0.569689,-0.0417986,0.0638282,0.102263
-1.39068,-0.107737,0.384036,-0.147928,0.0766225,-0.0140887
-0.688973,0.0727326,0.272956,-0.0937374,0.0796247,-0.111486
-0.150531,0.0861452,0.382902,-0.0939438,0.205545,-0.0391467
-0.316598,-0.194771,0.469099,0.141367,0.301991,-0.2487
1.48056,-0.515362,0.197474,0.265054,0.175722,-0.0229702
1.40409,-0.159525,-0.798448,-0.00754344,-0.195747,0.193082
0.756006,-0.235669,-0.861387,-0.0880369,-0.267921,0.109323
0.590368,0.125204,-0.464244,-0.219051,-0.283793,-0.0275636
-0.610192,0.252622,0.0638092,-0.173386,0.0159099,-0.291588
0.700409,-0.140975,-0.517334,0.279579,0.374262,-0.245657
-0.431327,-0.0433726,-0.156578,0.39829,-0.390641,0.22361
-1.17401,0.390218,0.608711,-0.18377,-0.182733,0.466043
-1.54123,-0.238645,0.730443,-0.136994,-0.197531,0.110945
-1.09646,0.0591978,0.256574,-0.0970336,0.0872508,-0.0519627
-0.763905,-0.0337194,0.520623,-0.0964857,0.0857553,-0.212204
-0.311387,-0.188396,0.487351,0.0532917,0.194065,-0.104735
1.2665,-0.423713,0.390896,0.282634,0.532756,0.123202
1.88245,-0.037473,-0.743891,0.102116,-0.180772,0.0962546
0.945093,-0.22722,-1.15799,-0.049004,-0.150291,0.13175
0.974482,0.26116,-0.395778,-0.16853,-0.253887,0.0574757
0.0223521,0.471397,0.254935,-0.259556,-0.197668,-0.197401
0.530871,-0.286656,-0.629399,0.260246,0.439812,-0.152639
-0.0706265,-0.720609,-0.252464,0.331573,-0.261266,0.361969
-1.37529,0.23497,0.533771,-0.125505,-0.416234,0.357356
-0.586081,0.519647,0.628095,0.070871,0.0554726,0.0480449
-0.598517,0.618663,0.56682,-0.212502,-0.0260801,-0.0529854
-0.362824,0.580171,0.574888,-0.0926908,0.0580058,-0.0482693
-0.119849,0.225505,0.641159,-0.00543153,0.128847,-0.0338473
0.0433606,-0.323839,0.494724,0.135284,0.360054,-0.0395734
1.32387,-0.746053,-0.51503,0.047327,0.0185156,-0.0972967
0.873584,-0.429414,-1.12539,0.162042,-0.0318614,0.129805
1.20321,-0.0210067,-0.732327,-0.227989,-0.32843,0.111179
-0.0469188,0.0638184,-0.00992319,-0.252134,-0.392877,-0.0553772
0.168159,-0.00430438,-0.613437,0.102762,0.531688,-0.194229
-0.136023,-0.027483,-0.684318,0.399124,0.0457803,-0.221177
-0.674353,-0.0369304,0.333195,0.346142,-0.346004,-0.0686754
-1.30828,0.133774,0.650277,-0.00139093,0.334021,0.10085
-1.04804,0.240025,0.675609,-0.214389,-0.0991335,0.0370483
-0.836877,0.354922,0.325622,-0.176456,0.0300525,-0.0510886
-0.113744,0.1617,0.37361,0.0378866,0.23357,-0.0499135
0.147561,-0.266426,0.451946,0.322374,0.370488,0.043458
1.38692,-0.60342,-0.664353,0.0385863,-0.0674815,-0.231212
0.691566,-0.552767,-1.08022,0.0949214,-0.0406972,0.110113
0.61147,-0.16218,-0.593272,-0.306559,-0.456746,0.0263847
-0.525843,-0.0635859,0.0939972,-0.238073,-0.328245,-0.138973
0.299312,-0.214021,-0.932962,0.24776,0.662575,-0.272165
-0.311603,-0.328562,-0.824133,0.302263,-0.32989,0.271526
-1.28894,-0.244169,0.802906,0.0182506,-0.542969,0.173767
-1.17298,-0.0451632,0.655191,-0.137148,0.19847,0.00045836
-0.932024,0.182513,0.444628,-0.163616,-0.0415491,-0.0254928
-0.659532,0.166373,0.343874,-0.100094,0.0959544,-0.169313
0.0365032,0.172157,0.689028,0.0833627,0.173096,-0.0505514
0.515804,-0.386995,0.511917,0.242968,0.467391,-0.0179633
2.03216,-0.226012,-0.668127,0.0332652,-0.0435269,0.0475967
0.854463,-0.426228,-1.05495,-0.0140761,-0.155663,0.211086
0.925984,0.154806,-0.608221,-0.198011,-0.267412,0.0685227
-0.0652215,0.467234,0.150092,-0.34002,-0.342043,-0.0406907
0.42415,-0.0203908,-0.894265,0.297523,0.674673,-0.120755
-0.549038,-0.302886,-0.664106,0.328986,-0.382579,0.307375
-0.999423,-0.406188,0.845967,-0.0458156,-0.566782,0.122332
-1.15698,-0.139924,0.685441,-0.0462903,0.0710952,0.00526714
-0.861624,0.209072,0.431475,-0.138661,0.0080663,-0.0574163
-0.472256,0.200273,0.42519,-0.131547,0.0931514,-0.0865778
-0.0932087,0.121207,0.482025,0.0160294,0.148384,-0.056808
0.422525,-0.122961,0.616607,0.376415,0.377615,-0.0938321
1.48401,-0.328858,-0.668878,-0.088482,0.00857949,-0.129413
1.21141,-0.279591,-1.07782,0.0928851,-0.0114128,0.229355
0.865253,-0.044132,-0.882814,-0.109234,-0.42902,0.0742692
-0.0514063,0.051071,-0.0966887,-0.312231,-0.197774,-0.11312
0.547829,-0.3622,-0.796161,0.0218565,0.329625,-0.227169
-0.18426,-0.791825,-0.340413,0.729583,0.0833355,0.0944244
-2.20832,-0.296746,0.931739,0.00132608,-0.422327,0.509022
-1.30947,-0.118511,0.684778,-0.176961,-0.00976622,0.119335
-1.09179,-0.039846,0.43982,-0.120518,-0.0540842,0.00727749
-0.67092,0.11311,0.507609,-0.113081,0.111952,-0.0676652
-0.0319841,0.298899,0.607822,-0.0490227,0.159723,-0.0269496
0.224932,0.0549039,0.778006,0.248,0.297472,-0.0537435
1.92359,-0.155923,0.297433,-0.117201,0.15521,-0.0444219
0.996708,-0.15708,-0.826611,0.0891606,-0.0609389,0.156691
0.925713,-0.195317,-0.962291,-0.0346465,-0.352124,0.103505
0.635097,0.147514,-0.400581,-0.225437,-0.302509,-0.00582135
-0.502649,0.19085,-0.0805175,-0.229772,0.00453395,-0.241331
0.35428,0.0359809,-0.525717,0.275892,0.314826,-0.214471
-0.451417,-0.0445089,0.213674,0.501065,-0.494602,0.270985
-1.49087,0.175426,0.631034,-0.298282,-0.178658,0.441657
-1.05258,-0.133564,0.52495,-0.0469344,-0.101514,0.0846729
-0.74635,0.107912,0.275497,-0.114506,0.0630925,-0.0361277
-0.514857,0.318457,0.454576,-0.156065,0.0549207,-0.162415
-0.00120181,0.375564,0.448565,0.0233505,0.1574,-0.0223795
0.404443,-0.175104,0.592892,0.35572,0.343589,-0.0164059
1.45996,-0.290579,-0.440055,-0.124592,-0.0198379,-0.137181
0.905501,-0.263442,-0.884284,0.0571067,0.0554529,0.193562
0.677637,-0.199419,-0.816254,-0.0984455,-0.350044,0.0642409
0.115052,0.147822,-0.0991736,-0.272151,-0.318276,-0.0442358
-0.0214516,-0.0649092,-0.364985,-0.0291777,0.304179,-0.205106
0.349641,-0.2109,-0.78249,0.322786,0.21505,-0.224076
-0.710302,-0.139096,0.36823,0.213865,-0.578879,0.0244757
-1.11608,0.422126,0.546165,0.0251412,0.28459,0.106529
-1.12676,0.119802,0.666271,-0.276169,-0.0406539,-0.00279462
-0.608338,0.281315,0.297236,-0.0959868,0.0835949,-0.131446
-0.0805986,0.290423,0.604071,-0.0611646,0.118906,-0.0782957
-0.262346,-0.417325,0.679812,0.216386,0.359517,-0.128942
1.41745,-0.696201,-0.0589536,0.0731883,0.0582474,0.0299405
1.13268,-0.194365,-1.10663,0.117223,-0.132493,0.0568724
0.760829,-0.138758,-1.02203,-0.174551,-0.400026,0.0939273
0.211448,0.238239,-0.122794,-0.2547,-0.412177,-0.0153171
0.447879,0.126414,-0.592194,0.0365363,0.48987,-0.196279
0.559757,-0.139727,-0.82087,0.397342,0.14223,-0.135436
-0.869663,-0.146437,0.407121,0.310168,-0.464218,-0.010856
-1.1565,0.356183,0.487965,-0.0241542,0.255675,0.0755138
-0.956685,0.17611,0.631748,-0.245655,-0.0363088,0.0269334
-0.765792,0.217543,0.36618,-0.0564374,0.00328356,-0.0497087
-0.210181,0.167047,0.598449,0.0472271,0.226011,-0.0732034
-0.0104485,-0.526067,0.592829,0.217403,0.364518,-0.0501865
1.04512,-0.587198,-0.657529,-0.0264951,0.0413705,-0.0390185
1.32496,-0.0880827,-0.994267,0.0140632,-0.0786803,0.171063
0.416087,-0.235446,-0.722822,-0.128879,-0.491765,0.119805
-0.220047,0.0819988,0.205469,-0.253342,-0.34082,-0.0193086
-0.413634,-0.10404,-0.188424,0.0958415,0.511478,-0.291118
-0.505926,-0.0388574,-0.883354,0.436979,-0.0846857,0.00211227
-0.748178,0.134405,0.758349,-0.055618,-0.165806,0.077233
-0.744994,0.353795,0.328813,-0.187191,0.24231,0.220575
-1.06193,-0.252685,0.189836,-0.025208,-0.121112,-0.109162
-0.75477,0.0408384,0.363272,-0.0889429,0.0175601,-0.186274
-0.0110399,0.178646,0.477568,0.071743,0.182068,-0.00611067
-0.124995,-0.751678,0.710606,0.359161,0.313988,0.00303578
1.47241,-0.568396,-0.466395,-0.185678,0.0978729,-0.156237
1.52305,0.0745941,-0.821935,0.00618637,0.0292054,0.292452
1.08235,0.298421,-0.684743,-0.023837,-0.314301,0.0281111
0.38827,0.448867,-0.0931577,-0.347417,-0.333811,-0.0732204
-0.00221889,-0.208616,-0.329267,0.11617,0.332963,-0.181219
0.0600066,-0.366036,-0.991185,0.405317,-0.0419853,0.0145129
-0.833198,-0.5436,0.784828,0.174246,-0.481291,0.0826263
-1.25506,0.135902,0.524541,0.00360465,0.431042,0.0041045
-1.00465,0.413514,0.645956,-0.227987,-0.0661761,-0.00213695
-0.631487,0.447335,0.530234,-0.133167,0.0458396,-0.0946901
-0.371356,0.0990919,0.402892,0.115239,0.212751,-0.0932579
0.322,-0.424046,0.330969,0.194892,0.315682,-0.0323002
1.74627,-0.7409,-0.99419,0.326974,-0.0565861,0.0142522
0.934769,-0.422087,-0.772428,-0.182641,0.0660374,0.180689
0.633616,-0.190883,-0.743945,-0.188874,-0.37845,0.084669
-0.0978398,0.157524,0.093295,-0.300813,-0.323056,-0.0639697
0.0271965,-0.0201657,-0.575387,0.0283511,0.4747,-0.241601
0.441259,0.0211246,-0.88017,0.448928,0.0633518,0.0941618
-1.14506,-0.297536,1.00911,0.112781,-0.669312,0.198127
-1.21171,-0.144084,0.542447,0.026636,0.301792,0.0445312
-0.692251,0.199403,0.367044,-0.223232,-0.0383215,0.00802124
-0.516532,0.368542,0.299272,-0.0390323,-0.0115896,-0.0606481
-0.493541,0.181072,0.704445,-0.0946018,0.110364,-0.0938556
0.209892,-0.250523,0.590782,0.122148,0.251475,-0.124598
1.3892,-0.715446,0.370108,0.228002,0.213915,0.101711
1.32384,-0.0625582,-0.889371,-0.169364,-0.296246,0.0749052
0.762792,-0.0684422,-1.21693,0.070071,-0.0267979,0.184438
0.852992,0.224074,-0.666923,-0.125644,-0.299549,0.0659765
-0.567729,0.257891,0.242055,-0.265434,-0.193999,-0.0610929
-0.712108,-0.159113,-0.388753,0.137404,0.482173,-0.045698
-0.281808,0.00141771,-0.810176,0.323608,-0.0393221,0.164179
-0.44517,-0.094589,0.4483,-0.129074,-0.355626,0.0533847
-0.418938,0.39086,0.16759,-0.0673,0.19835,0.195441
-0.454456,-0.0615208,0.19547,-0.030838,-0.0980161,-0.0621681
-0.824437,-0.19426,0.0158134,0.00504518,-0.0298176,-0.162638
-0.480726,0.0672197,0.523762,-0.183548,0.0594188,0.0101497
-0.325139,-0.226727,0.668217,0.155848,0.083003,-0.0608684
0.616216,-0.475352,0.327934,0.219333,0.243309,-0.0201637
1.34664,-0.610854,-0.535219,-0.0896653,-0.249686,-0.0920713
0.452854,-0.35362,-0.711567,0.14222,0.0495385,0.112981
0.6708,-0.0100108,-0.491006,-0.241475,-0.302012,-0.0179667
-0.79292,0.0962721,0.1797,-0.260846,-0.186318,-0.14511
-0.135985,0.109854,-0.701565,0.305809,0.403542,-0.106847
-0.206481,0.08217,-0.472132,0.184631,-0.18298,0.104808
-0.36006,0.0905625,0.460859,-0.167902,-0.303028,0.0751173
-0.818257,0.238927,0.21033,-0.00453395,0.175551,0.254785
-1.05512,-0.194146,0.256259,-0.0522943,-0.0739859,-0.0383439
-0.300971,0.100172,0.186348,-0.0446772,0.0780007,-0.0898474
-0.287282,0.0468694,0.433884,-0.0975094,0.151321,-0.109288
-0.197227,-0.463049,0.350829,0.13759,0.036573,0.0175636
0.119534,-0.944278,-0.215804,0.117574,0.163373,-0.0438468
1.19207,-0.278645,-0.469845,-0.157366,-0.403672,0.277424
0.531276,-0.357993,-0.454763,-0.0214016,-0.145628,-0.111228
-0.261446,0.0150764,-0.172883,-0.197752,-0.294589,-0.107537
-1.14171,0.132685,0.336326,-0.112669,-0.0879674,-0.158999
-0.0844195,-0.0413757,-0.550929,0.265657,0.31877,-0.200078
-0.432503,0.105624,0.0445847,0.321328,-0.402413,0.204869
-0.494747,0.126861,0.411109,-0.108652,-0.316688,0.136132
-0.767455,0.0482863,0.438079,0.0144085,-0.0486619,0.158017
-0.57254,0.0461062,0.101951,-0.0897657,0.111389,-0.0310156
-0.438905,0.0523339,0.351869,-0.116076,0.104192,-0.216693
0.212747,-0.174796,-0.000296682,0.0011974,0.236605,-0.127668
0.309476,-0.514314,-0.428213,0.252922,0.0152042,0.0290807
0.780675,-0.739196,-0.690332,-0.0132867,-0.208672,-0.0866363
0.104669,-0.150127,-0.422339,-0.0096913,-0.0179797,0.197746
-0.295832,-0.124369,-0.0767714,-0.232944,-0.346291,-0.00962019
-1.32652,-0.0843349,0.347293,-0.181286,-0.082005,-0.24315
-0.951704,-0.2898,-0.627961,0.253944,0.42206,-0.136345
-1.18924,-0.589803,-0.633568,0.400017,-0.476531,0.125101
-1.40808,-0.827169,-0.0544162,-0.0430928,-0.180505,0.102701
-2.28517,-1.16711,-0.219275,-0.0476728,-0.00572884,0.118945
-1.94915,-0.799101,-0.0209545,-0.0213972,0.104573,0.00131261
-1.76028,-0.517209,0.193982,-0.220213,0.148674,-0.196155
-0.289161,-0.110554,0.0078822,-0.0674686,0.295403,-0.110956
0.290086,-0.451658,0.179666,0.125987,0.449492,-0.216399
1.44673,-0.751532,-0.164549,0.0559125,-0.0895521,0.0485001
1.08915,-0.180531,-0.874764,0.133845,-0.0334852,-0.044
0.424614,-0.0822316,-0.415561,-0.304031,-0.43401,0.0373777
-0.900493,0.111245,0.227724,-0.29156,-0.259328,-0.145076
0.170302,-0.0638728,-0.709695,0.367876,0.632806,-0.188261
-0.165539,-0.249958,-0.529158,0.394654,-0.424309,0.232885
-1.11357,0.285847,0.73266,-0.297142,-0.510806,0.489479
-1.41089,-0.212087,0.671968,-0.0226726,-0.126366,0.0599905
-1.57638,-0.359776,0.0695601,-0.148675,0.159768,-0.0929786
-0.535756,-0.212624,0.228961,-0.174054,0.192831,-0.189352
0.238241,-0.149299,0.144521,-0.0593436,0.253245,-0.0944468
-0.111346,-0.309736,-0.0177492,0.162435,0.238674,-0.158773
1.57104,-0.829201,-0.670585,0.0639507,-0.0969721,0.181241
1.01714,-0.289099,-0.699875,0.209607,0.226824,0.0190959
0.529886,-0.0365329,-0.456179,-0.353273,-0.457853,0.0465353
-0.310404,0.617531,0.107569,-0.345282,-0.226577,-0.107048
0.32115,0.0370473,-0.356893,0.204558,0.494436,-0.217666
0.612243,-0.0598963,-0.884573,0.235495,0.249945,0.159413
0.148335,0.524478,0.507949,-0.088225,-0.631727,0.255893
-0.666834,0.66986,0.476093,0.0556152,0.156338,0.0367119
-1.05423,0.460453,0.418365,-0.263305,0.0650162,-0.0961342
-0.554466,0.0673159,0.336614,-0.127682,0.11251,-0.191434
-0.256778,-0.372473,0.142344,0.0836614,0.351892,0.0374192
1.52519,-1.06667,-0.192265,0.128769,0.369121,0.128023
0.427813,-0.924114,-0.84726,0.251225,-0.0869604,-0.154551
0.788548,0.109123,-0.49086,-0.313353,-0.384907,0.151978
-0.15818,0.369538,-0.465445,-0.287956,-0.294998,0.0160701
-0.788405,0.579663,-0.299332,-0.195477,0.102071,-0.140574
0.917407,0.149372,-0.097564,0.0899915,-0.0014559,-0.322216
0.878727,0.527516,-0.985998,0.25528,0.198244,0.567145
-0.263277,0.854697,0.749215,0.0230304,-0.557112,0.296692
-0.768818,0.660258,0.819706,-0.0564902,0.268216,0.113083
-1.18302,0.206134,0.453565,-0.226123,-0.0704583,-0.188909
-0.571084,-0.297746,0.202951,-0.0678632,0.196965,-0.18169
-0.356501,-1.02806,-0.0819257,0.0588754,0.342156,-0.130785
0.969068,-1.18123,-0.152407,-0.0588077,-0.119685,0.105535
0.257333,-0.501406,-0.820704,0.454687,0.526407,-0.0695623
0.492913,0.0549824,-0.238262,-0.477838,-0.540893,0.050711
-0.820359,0.571045,0.172495,-0.43368,-0.453849,-0.0976425
0.475732,-0.0481539,-0.653796,0.44789,0.941771,-0.422018
0.758477,0.160372,-1.03304,0.243594,0.239454,0.173659
-0.373894,0.811184,0.576696,0.0868335,-0.506297,0.305533
-0.794753,0.499543,0.833495,-0.203929,-0.0325295,0.07458
-0.908793,0.417803,0.26801,-0.200881,0.0981519,-0.166243
-0.357737,-0.00625392,0.247905,-0.078205,0.193617,-0.119862
-0.343178,-0.657668,0.0559848,0.0272022,0.207554,-0.188166
1.45146,-1.10816,-0.0656428,0.178406,0.0300474,0.157532
-0.0573024,-0.577845,-0.713912,0.43987,0.27958,-0.0873349
0.239185,-0.232147,-0.558846,-0.431659,-0.375638,0.0460073
-1.13774,0.206152,0.25921,-0.397001,-0.314571,-0.0584038
0.380304,-0.0629829,-0.627011,0.33107,1.13063,-0.186321
0.579161,0.0508493,-0.937519,0.148862,0.0429822,-0.0622951
-0.124292,0.627911,0.612907,0.480361,-0.538699,0.284363
-0.991168,0.381434,1.22113,-0.0929173,-0.098359,0.139799
-1.02043,0.351831,0.505585,-0.353844,0.00561345,-0.130403
-0.775456,0.0026174,0.0697105,-0.0219176,0.140874,-0.169866
-0.146568,-0.418331,0.155414,0.0772861,0.212539,-0.143067
2.33394,-0.841618,-0.0987323,0.141102,0.33185,0.12749
-0.450864,-0.456195,-0.731331,0.289398,0.164308,-0.0114759
0.622388,-0.529413,-0.568132,-0.21443,-0.284214,-0.0173745
-0.565325,0.0897653,0.028113,-0.528458,-0.592835,0.10262
-0.0187215,0.423571,0.153894,0.0303982,0.516623,-0.116357
0.67063,0.214679,-0.807083,0.0740119,0.114891,-0.382496
1.17011,0.364212,-0.0863388,0.185659,-0.378368,0.263835
-0.905768,0.80515,0.768772,0.250445,0.20671,0.143743
-0.958751,0.606129,0.787641,-0.314313,-0.0685229,-0.0141153
-0.868053,0.0654828,0.128571,-0.139789,0.0236216,-0.178891
-0.31288,-0.260655,0.119115,-0.106265,0.161251,-0.0992198
0.165059,-0.558984,-0.159984,0.0299234,0.370826,0.031791
1.04733,-0.688439,-0.134869,0.0879314,-0.338973,0.215096
0.356265,-0.609001,-0.757369,0.146863,0.385792,0.0367715
0.299248,-0.0524047,-0.11506,-0.499247,-0.487594,0.0358807
-0.468266,0.438736,0.4336,-0.293394,-0.157811,-0.0726401
1.17121,0.0758436,-0.473637,0.0610181,0.345062,-0.251203
0.833689,0.209237,-0.78488,0.09426,0.185097,0.223448
0.23408,1.17901,0.724566,0.291046,-0.636484,0.401331
-1.49445,0.620219,1.34369,-0.0955844,0.0138023,0.243655
-1.79731,0.319347,0.759151,-0.419192,-0.0938003,-0.106941
-0.736079,-0.17173,-0.887953,0.148679,0.46575,-0.216231
-0.220548,-0.688552,-0.189915,-0.147491,0.0543273,-0.00952959
1.67788,-1.00933,-0.0117614,0.198375,0.198539,0.0558224
-0.0169652,-0.367114,-0.662256,0.546132,-0.00723422,-0.0970651
0.625893,-0.152622,-0.422833,-0.384801,-0.290983,0.0763554
-0.217194,0.172548,0.0266349,-0.369398,-0.259217,-0.0924999
-0.491444,0.405828,0.171052,0.115073,0.159076,-0.046504
0.701863,0.153954,-0.685675,0.0956237,0.414109,-0.0904111
0.965849,0.765635,0.0704988,-0.0156026,-0.233777,0.175864
-0.613939,0.814539,0.677846,0.139498,0.125911,0.112935
-0.95518,0.601881,0.756641,-0.295613,-0.0905433,-0.0150226
-0.708832,0.059014,0.000827421,-0.133033,0.150057,-0.0862104
-0.394494,-0.685276,0.00191527,-0.012476,0.187455,-0.126049
1.2652,-1.07185,0.0596479,0.338251,0.243941,0.0535469
-0.31101,-0.249853,-0.475114,0.276998,0.0358761,0.00726467
1.05351,-0.232762,-0.460739,-0.335759,-0.537009,0.105242
-0.595104,0.0919097,0.0834606,-0.443248,-0.232765,0.0321438
-0.431479,-0.0827521,-0.0355035,0.197136,0.493591,-0.27823
1.16368,0.199546,-1.31757,0.372313,0.321959,-0.132276
-0.0451296,0.552362,0.288385,0.174873,-0.490685,0.335416
-1.05701,0.548675,0.985746,-0.0250136,-0.0445696,0.131471
-0.961385,0.465716,0.432277,-0.308695,0.00403285,-0.078769
-0.613753,-0.0464938,0.225791,-0.0809442,0.162446,-0.0977305
-0.428385,-0.597992,0.132081,-0.0461542,0.106683,-0.154034
1.10158,-0.811895,-0.348267,0.311314,0.44888,0.167185
0.129583,-0.401345,-0.402511,0.067973,-0.240119,0.204414
1.34721,-0.343584,-0.822409,-0.14036,-0.146035,0.115281
-0.556668,0.169609,0.0195824,-0.46167,-0.513053,-0.00637436
-1.05183,0.231635,0.31371,-0.0871781,0.196844,-0.141373
1.1752,0.200342,-0.247773,0.031978,-0.104018,-0.333057
0.721945,0.452954,-0.256372,0.17414,-0.082165,0.338778
-0.943915,0.535945,0.512718,0.127557,0.0789191,0.143959
-1.18327,0.100766,0.486887,-0.293799,-0.060335,-0.077617
-0.130261,-0.0563423,-0.0952835,-0.185095,0.095074,-0.197444
-0.260764,-0.179849,0.401247,-0.0686041,-6.44922e-05,-0.0539479
0.325376,-0.583617,0.0228272,0.216685,0.521739,-0.0707874
0.64183,-0.207004,-0.0799628,0.189923,-0.232994,0.175037
0.985669,-0.167706,-0.701397,0.0570828,-0.0568536,0.100828
0.170827,0.219127,-0.063232,-0.409334,-0.500784,0.0224617
-1.37597,0.226538,0.391426,-0.188131,-0.0575479,-0.291189
0.9701,-0.242248,-0.549461,0.236736,0.261053,-0.266624
0.800081,-0.045201,-0.545161,0.379331,-0.0531982,0.461499
-0.586549,1.08596,0.720732,0.104575,-0.144228,0.37452
-1.02737,0.394348,0.854547,-0.246252,-0.123386,-0.014704
-0.337421,0.137535,-0.0549901,-0.2377,0.135933,-0.118105
-0.301676,-0.150962,-0.032879,-0.0942361,0.0486346,-0.173877
-0.586706,-0.410641,0.570168,-0.0119439,0.268221,-0.107835
1.04828,-0.894909,-0.206368,0.29417,0.327345,0.0297141
0.605753,-0.0620807,-0.574112,0.272816,0.0240601,-0.0228264
0.435232,-0.307811,-0.686076,-0.228722,-0.211257,0.0474457
-0.393428,0.106684,0.0300614,-0.366224,-0.515554,-0.0440537
-0.300012,0.391835,0.272827,-0.0270236,0.173003,-0.221362
0.685859,-0.130313,-0.368624,-0.00531399,0.055325,-0.291896
0.916982,0.293199,-0.485279,0.376684,-0.12843,0.589959
-0.506468,0.93578,0.833141,0.286209,-0.00820535,0.269373
-1.13829,0.516809,1.00629,-0.286971,-0.178146,-0.0226786
-0.704736,0.194132,0.319834,-0.250948,0.0743422,-0.151549
-0.278968,-0.212824,0.387161,-0.165156,0.0712588,-0.0741562
0.506086,-0.656099,-0.0853291,0.0787199,0.445981,0.0354321
0.99846,-0.232762,-0.263267,0.246557,-0.237637,0.249193
0.694041,-0.191939,-0.835304,0.0490167,0.093797,0.0848251
0.711091,0.400776,-0.144016,-0.464039,-0.39631,0.0777801
-0.500054,0.64637,0.350614,-0.284085,-0.237878,-0.119281
0.828277,-0.0175402,-0.555572,0.272583,0.445411,-0.260869
0.577654,-0.247146,-1.07534,0.132649,0.272262,0.243479
-0.288316,0.676013,0.367971,-0.0806267,-0.704922,0.587814
-0.906713,0.393185,0.898746,-0.0897487,-0.0587854,0.15444
-1.13297,0.527582,0.495607,-0.186898,0.0484042,-0.0945208
-0.685906,-0.169867,0.105202,-0.053158,0.185347,-0.118685
-0.407465,-0.659701,-0.00144681,0.022763,0.159294,-0.105398
0.972979,-1.2536,-0.106217,0.324968,0.0748206,0.0998549
0.0623397,-0.376724,-0.696657,0.240194,-0.0265732,-0.0576645
0.0427064,-0.600286,-0.555327,-0.324712,-0.38759,0.021548
0.302916,0.316865,0.325773,-0.463171,-0.237095,-0.0992318
0.678325,0.172043,-0.50498,0.253168,0.489772,-0.141405
0.58658,-0.0321139,-1.12256,0.226043,0.437373,0.0538958
-0.22755,0.779205,0.44137,-0.106102,-0.612717,0.326761
-0.665201,0.940194,0.707145,-0.041441,0.131471,0.0307699
-1.19478,0.464793,0.621315,-0.292477,-0.0613202,-0.00705016
-0.64962,-0.128397,0.147322,0.00692654,0.170377,-0.185678
-0.39933,-0.531956,-0.0678675,-0.0622049,0.19551,-0.147951
1.33819,-1.22082,-0.288414,0.266905,0.221152,0.0965973
-0.344423,-0.616974,-0.760984,0.422323,0.196765,-0.0267372
0.852589,-0.336827,-0.781957,-0.200651,-0.285043,0.0520346
0.0107982,0.341643,0.0269256,-0.610576,-0.516487,-0.0118532
0.283259,0.654326,0.311306,0.0469175,0.253459,-0.184235
0.566772,0.233939,-0.805037,0.334485,0.410009,-0.203252
0.569215,0.7297,0.258787,-0.0331564,-0.567005,0.219471
-1.00708,0.749902,0.74094,0.126477,0.359464,-0.0014261
-1.4264,0.398938,0.751531,-0.337243,-0.171108,-0.00739014
-0.66712,-0.0144584,0.0517211,-0.153508,0.181081,-0.204598
-0.0606633,-0.650386,0.0281671,-0.0869211,0.0942172,-0.000710487
1.16823,-1.24622,-0.371682,0.256428,0.221545,-0.0343832
-0.138757,-0.630931,-0.882841,0.670552,0.660903,-0.0992752
0.705676,0.00593972,-0.415641,-0.186292,-0.383775,0.0146538
0.136242,0.548015,0.213384,-0.569546,-0.569461,0.175164
0.208872,0.52252,-0.215131,0.115129,0.487443,-0.269308
0.271635,-0.0330219,-0.786693,0.0823259,0.0317111,-0.488836
0.825446,0.11004,0.116698,0.0746651,-0.690119,0.461954
-1.20336,0.474309,0.92423,0.201476,0.244208,0.266651
-1.01541,0.515729,0.733584,-0.281681,-0.147418,0.0420507
-0.87698,0.109128,0.253735,-0.219805,0.0238031,-0.131548
-0.682595,-0.222003,0.000358634,-0.107202,0.214858,-0.26409
-0.135091,-0.703518,-0.088252,-0.0300949,0.270295,-0.0604424
0.576799,-0.822191,-0.110048,0.278683,-0.431406,0.325761
0.621919,-0.391992,-0.847688,0.251945,0.40486,0.0701666
0.70333,0.0985526,-0.407187,-0.390084,-0.480499,0.104551
-0.690174,0.629466,0.436287,-0.357069,-0.356154,-0.0558079
0.431929,0.0711277,-0.613673,0.215143,0.759465,-0.149199
0.479418,-0.145905,-1.20502,0.252335,0.113209,-0.415571
0.367381,0.652107,0.43647,0.297172,-0.74393,0.510377
-1.53188,0.347852,1.01913,0.0588745,0.199389,0.237481
-0.982207,0.451855,0.66657,-0.337116,-0.0951353,-0.0419867
-1.07979,-0.102539,0.227028,-0.1097,0.165913,-0.183727
-0.807527,-0.528493,0.0849101,0.0533057,0.204461,-0.0350451
0.425435,-0.777289,-0.427667,0.233632,0.567756,0.00654161
0.648075,-0.530472,-0.543173,0.000605881,-0.350565,0.15168
0.778467,-0.514504,-0.915391,0.210374,0.350589,-0.0280751
0.194271,0.119107,-0.227739,-0.518358,-0.448055,0.0285436
-0.371289,0.588776,0.451716,-0.238207,-0.0603393,-0.185953
0.813717,0.163377,-0.318206,0.10089,0.233026,-0.248472
1.30995,0.503568,-0.0291792,0.0557941,-0.343417,0.143108
-0.232786,1.35503,0.679524,0.164378,0.192156,0.304353
-1.01275,0.623172,0.986195,-0.259499,-0.425777,0.0303116
-0.769035,0.197401,0.263442,-0.13686,0.144411,-0.254059
-0.118562,-0.437419,-0.0401368,-0.0289094,0.203544,-0.00249231
1.0225,-0.849044,-0.434748,0.247897,0.431079,0.184268
-0.347577,-0.30837,-0.385498,0.237254,-0.378377,0.14184
0.676217,-0.483568,-0.860896,-0.193359,-0.00250834,0.000296712
-0.572733,0.0344493,0.0174123,-0.67548,-0.618016,0.0196115
0.143835,0.29464,0.339002,0.178903,0.437263,-0.123405
0.381339,0.194714,-0.855268,0.0352018,0.017363,-0.485725
0.938423,0.432507,0.0362814,0.138127,-0.513698,0.427312
-0.805976,0.533638,0.86871,0.247918,0.162385,0.0927728
-1.07438,0.45828,0.794008,-0.296523,-0.0856431,-0.0413458
-1.02788,0.0283501,0.214631,-0.164888,0.0914378,-0.232227
-0.358306,-0.374538,0.337187,0.0231676,0.113076,-0.0373037
0.872142,-0.521098,-0.358615,0.237045,0.554639,0.0886722
0.574964,-0.669877,-0.466765,0.0374156,-0.298688,0.095264
0.518043,-0.488805,-0.728839,0.0204005,0.159418,0.0193617
0.0450389,-0.0585214,-0.313834,-0.497517,-0.493777,0.0207234
-0.00230056,0.659839,0.421573,-0.115101,0.00582349,-0.0980225
0.808532,0.157111,-0.752963,0.013309,0.325732,-0.32932
1.5489,0.47697,-0.748102,0.475666,0.171668,0.42889
-0.865273,1.07658,0.798981,0.332386,-0.259127,0.331974
-1.07662,0.506084,1.21046,-0.18656,-0.230048,0.0559691
-0.994577,0.444412,0.712491,-0.313142,0.0155864,-0.114522
-0.495047,-0.148703,0.0516678,0.00789511,0.254137,-0.0821776
-0.245363,-0.634261,0.00573612,-0.107742,0.0702896,-0.0300467
1.26069,-1.24635,-0.113652,0.308549,0.017134,0.103733
0.0514384,-0.30431,-0.695752,0.488021,0.308649,-0.114706
0.843821,-0.00796653,-0.492206,-0.372592,-0.551935,0.0338821
-0.170412,0.425817,0.284992,-0.368409,-0.240641,-0.048664
0.0859271,0.174564,-0.316817,0.316067,0.547067,-0.282604
0.0176458,0.0671857,-0.602284,-0.284406,-0.0850208,-0.341139
0.761282,0.521026,-0.0953644,-0.044845,-0.276252,0.801201
-1.02869,0.852092,0.832687,0.127031,0.0975727,0.148386
-1.43891,0.212657,0.827608,-0.343736,-0.321097,0.0354832
-1.59616,-0.0776879,0.277903,-0.124957,0.0204107,-0.192109
-0.261998,-0.483156,0.237742,-0.0916029,0.291826,-0.0184788
1.39772,-0.572602,-0.253028,0.269593,0.703556,0.152296
0.837692,-0.602996,-0.469193,0.354652,-0.414742,0.156276
1.58589,-0.584233,-1.08176,-0.0304118,0.396278,-0.0818716
0.501064,0.121038,-0.301346,-0.549754,-0.523766,0.101908
-0.426043,0.900736,0.38335,-0.182805,-0.2827,-0.133311
1.16726,0.34726,-0.226565,0.260641,0.425279,-0.339167
1.48062,0.132157,-0.804201,0.396571,0.393654,0.0984941
-1.29263,0.847099,0.324329,-0.028558,-0.281759,0.700777
-1.41981,0.210553,0.656505,-0.02908,-0.403597,0.138906
-1.85974,0.201313,0.638697,-0.212155,0.0419901,-0.0500695
-1.30925,-0.107697,0.24799,-0.238652,0.178466,-0.118295
-0.830684,-0.895648,-0.147322,-0.0188442,0.188505,-0.248521
1.58774,-0.893076,-0.504311,0.492898,0.242422,0.0855225
1.03718,-0.313644,-0.339806,0.339424,0.0656613,0.0569427
0.628401,-0.628328,-0.72102,-0.353569,-0.155281,-0.00522351
-0.115861,0.390716,0.0350993,-0.462046,-0.507607,0.0299219
0.197039,0.819405,0.267353,-0.0177169,0.188724,-0.0689375
0.142025,-0.308696,-0.46452,0.0143769,-0.0449557,-0.429966
0.632017,0.314713,-0.433887,0.227331,-0.0726016,0.428717
-0.736693,0.890262,0.619685,0.140883,0.0995369,0.169516
-1.35929,0.497983,0.424573,-0.257801,-0.107044,0.0119708
-1.44122,-0.0437243,0.24537,-0.263006,-0.106793,-0.237146
-0.701252,-0.47961,0.154609,0.114833,0.320902,-0.139673
1.26581,-0.368196,0.0354476,0.309443,0.645774,0.175097
1.37005,-0.355408,-0.316719,0.145268,-0.432265,0.15156
0.738506,-1.23299,-0.850871,0.0624192,0.40588,-0.0649634
0.814779,-0.297588,-0.0650319,-0.501498,-0.6089,0.0240437
-0.457794,1.14564,0.190021,-0.349026,-0.230249,-0.059797
0.640195,0.123139,-0.577083,0.248165,0.492769,-0.444396
1.80902,0.0372998,-1.28007,0.461505,0.199131,0.284237
-0.612508,1.118,0.510586,0.0904128,-0.0368724,0.319044
-1.0378,0.950082,0.660112,-0.243457,-0.213486,0.137546
-1.09209,0.423276,0.422322,-0.262318,-0.0341417,-0.214997
-0.222467,-0.170173,0.0462346,0.0582498,0.22416,-0.199744
0.42712,-0.485722,0.00358205,0.0100507,0.258649,-0.059389
1.24323,-0.832207,-0.242726,0.266821,-0.344896,0.0568532
0.610372,-0.910446,-0.520718,0.186159,0.451915,0.00189614
-0.169019,-0.338342,-0.188556,-0.50872,-0.549569,0.145227
-0.877294,0.582809,0.341084,-0.348802,-0.403309,-0.00968558
0.505144,0.0849226,-0.584995,0.325146,0.788961,-0.46399
1.48879,-0.558625,-1.00149,0.458169,0.524146,-0.0206993
-0.936157,0.574377,0.179816,0.132531,-0.418992,0.413341
-1.19911,0.671274,0.808462,-0.0679787,-0.173644,0.113173
-1.04761,0.305083,0.419725,-0.277067,0.0337973,-0.0969253
-0.853037,-0.40071,0.0810732,-0.132641,0.21056,-0.147938
-0.773472,-0.830772,-0.040721,-0.00492299,0.23779,-0.164111
0.622775,-1.00955,-0.145727,0.429523,0.0324493,0.0990142
0.312834,-0.420533,-0.656264,0.481368,0.559086,-0.0398815
1.18748,-0.163582,-0.66375,-0.268701,-0.37585,0.163079
0.435996,0.696846,0.17811,-0.481358,-0.520533,0.129623
0.572505,0.796841,0.0403642,-0.0243497,0.209895,-0.26197
0.700921,0.195515,-0.703875,0.140828,0.0671952,-0.462413
0.708025,0.00375744,-0.123276,0.239564,-0.49781,0.107212
-0.731896,0.923302,0.467673,0.241824,0.196253,0.151787
-1.14982,0.743643,0.741499,-0.182792,-0.223136,0.1531
-1.4403,0.00737151,0.256043,-0.032098,-0.00540215,-0.271814
-0.532894,-0.143357,0.154051,-0.113732,0.128646,-0.112089
-0.745459,-0.593469,0.153159,-0.0510807,0.0569773,-0.132135
0.880764,-0.775584,-0.0209714,0.501012,0.362355,0.0757239
0.838407,-0.260314,-0.156868,-0.0403316,-0.356792,0.151984
0.198019,-0.723863,-0.505227,-0.164743,-0.13107,0.0709894
-0.202527,0.252407,0.0631829,-0.407732,-0.362908,0.0329462
-0.841212,0.668993,0.39816,-0.0675868,0.0964924,-0.185494
0.320374,-0.130971,-0.78495,0.200479,0.26459,-0.525862
1.14245,0.138703,-0.419357,0.047042,-0.214713,0.176963
-0.245852,1.36472,0.376376,0.105751,-0.0183976,0.329855
-0.719499,0.800806,0.742034,-0.182331,-0.314868,0.108015
-1.32315,0.116909,0.314008,-0.184946,-0.0186527,-0.148189
-0.644654,-0.302902,-0.00123766,0.0138135,0.24403,-0.145687
-0.438121,-0.593637,-0.0757065,-0.102346,0.159416,-0.131537
0.821123,-1.12679,-0.0748272,0.109598,-0.012924,0.117732
0.053247,-0.497036,-0.436415,0.592159,0.102675,-0.0954655
0.460659,-0.462166,-0.621357,-0.403376,-0.33347,0.162225
-0.316402,0.314194,0.192456,-0.557696,-0.411784,-0.00426006
0.0844666,0.339522,-0.0899758,0.137963,0.564627,-0.196927
0.802932,0.111359,-0.730468,0.258419,0.197222,-0.195369
