rotation_x,rotation_y,rotation_z,acceleration_x,acceleration_y,acceleration_z
-1.63917,0.284315,3.12617,0.247445,-0.00539905,0.232093
-1.01531,0.299,2.20171,0.211107,0.394773,0.174702
-1.03933,0.256831,0.675703,0.0266105,0.368043,0.122471
-1.36463,0.43279,0.330279,-0.0906883,0.38831,0.0917057
-0.95654,0.763585,0.154696,-0.0473728,0.409569,-0.0638584
-2.72087,0.170056,-0.66025,-0.0159656,0.135487,-0.251195
-2.24919,-0.120812,-0.961913,0.0346468,0.329485,-0.25158
1.52401,-0.0385474,-0.481313,0.287599,0.192858,-0.439874
1.19557,-0.60025,-0.868874,-0.160269,-0.0445498,-0.314634
0.536416,-1.33212,-0.844569,0.237198,-0.161869,0.123366
-0.451311,-0.802356,-0.854142,-0.0559546,-0.138963,0.184285
1.04388,0.170359,-0.190381,-0.101196,-0.169169,0.233602
1.33666,0.596898,0.207617,-0.111372,-0.276947,0.0446955
-0.904885,0.653767,0.706811,-0.0791641,-0.256861,0.0230557
-1.24613,1.06154,1.34711,0.0186052,-0.0253086,-0.158831
-2.89063,0.504089,0.651271,0.722786,0.10581,-0.529331
1.29444,-0.654682,-0.597883,0.040545,0.302376,-0.0980823
1.68459,-0.604993,-0.37401,-0.13912,-0.0127102,-0.0108554
0.80408,-0.0605249,0.116578,-0.143885,0.108291,0.0902132
0.769897,0.0118694,0.172867,-0.125953,0.135947,0.136696
0.603294,0.0887635,-0.345186,-0.0552701,0.149986,0.162673
0.172892,-0.00454157,-0.541627,-0.00278354,-0.00581369,0.0837288
-1.59481,-0.219298,-0.656737,-0.0292847,-0.166038,0.061725
-1.61893,0.247647,0.778355,0.331916,-0.042246,-0.0555722
0.756364,0.0704352,0.116973,-0.229828,0.0230429,-0.20751
0.743548,-0.423473,0.149441,0.107103,0.0264243,0.00547111
0.580586,0.10576,-0.139881,-0.174264,0.0164895,0.0872986
0.659216,0.360111,-0.134955,-0.165759,0.016991,0.0741091
1.03142,0.731291,0.0155752,-0.103135,0.0145683,-0.0232048
-2.84978,0.0583786,-0.628401,0.149501,-0.0568452,-0.387431
0.729404,-0.304197,-0.0607081,0.168209,0.0961047,-0.158091
3.28911,-0.293296,-0.0713255,-0.0766948,-0.0849366,0.117923
-0.0958814,-0.232347,0.261801,0.147765,-0.0210397,0.115209
-0.390468,-0.240521,-0.211569,-0.170506,0.00706393,0.130057
-0.547043,-0.273455,-0.0227256,-0.145094,-0.0721579,0.135188
-0.963631,0.0588045,0.591097,0.120995,-0.0401805,0.149611
-1.64294,0.0465508,0.508461,0.234959,0.0390829,0.0826066
-1.16978,0.0494632,0.243997,-0.0909144,0.0846602,-0.0721146
-0.145962,-0.236493,-0.0160732,-0.0739894,0.0441917,-0.116012
-1.29755,-0.447318,-0.623159,-0.184627,-0.0877534,-0.0457886
-0.652734,0.100241,0.0174672,-0.211959,-0.0942082,-0.0842601
-0.265574,0.483016,0.598593,-0.136125,-0.10075,-0.215317
0.0985953,0.589079,1.02661,0.132673,0.0595809,-0.213417
0.778581,0.27575,0.558161,0.438846,0.364222,-0.254862
2.08286,-0.288057,-0.436191,-0.0296223,0.181799,-0.221485
1.75658,-0.824336,-0.308726,0.0347332,0.111911,-0.102327
0.545106,-1.17567,-0.760029,-0.0115023,0.0199624,0.158781
0.0507647,-1.01883,-0.760431,-0.0277445,-0.021309,0.315792
-0.332771,-0.575786,-0.526441,-0.0455438,-0.0997391,0.390094
-1.08785,-0.144177,-0.334135,-0.00577992,-0.209291,0.387181
-1.22764,0.748663,1.05641,0.319105,-0.236798,0.229384
-1.08674,1.00721,1.10379,-0.0675691,-0.11381,-0.173729
-0.391042,0.29044,0.619854,0.150141,-0.053402,-0.0441602
0.3548,0.152667,0.248331,-0.0654545,0.170016,-0.143436
0.303969,0.172983,0.0400162,-0.105717,-0.0258943,-0.142653
0.123562,0.0442835,0.138739,-0.0134419,0.0871325,-0.17793
0.735122,-0.363825,0.0186574,-0.00484824,-0.0945841,-0.133408
-0.662784,-0.490418,-0.412489,0.11387,-0.0331805,-0.048729
-0.631348,-0.632977,-0.819938,-0.0524669,-0.10505,-0.0233511
-0.782719,-0.35838,-0.227669,-0.120093,-0.202731,-0.0293493
-0.706158,0.182128,0.46541,-0.0874918,-0.147878,-0.0472592
-0.422993,0.336185,0.775759,-0.00172496,-0.0621927,-0.10074
-0.144464,0.345661,0.405232,-0.0258257,0.0775431,-0.138248
-0.024908,0.16894,0.157289,0.168175,0.119789,-0.133228
0.193941,-0.0705904,-0.376426,-0.0797206,0.128248,-0.0649812
1.41551,0.12756,-0.359572,-0.0161321,0.0770923,-0.000896633
0.905395,0.187524,-0.289394,-0.0732235,-0.0175086,0.0155728
0.484631,0.316508,0.226088,0.00472587,-0.00738995,0.0149744
0.217091,0.291166,0.167396,-0.0800571,0.0624689,-0.00792378
0.0700732,0.229565,0.0651494,-0.0335079,0.0395067,-0.00753105
0.136118,0.275212,0.363511,0.00979835,0.0609383,-0.0632133
-0.39459,0.0957373,0.253818,0.150746,0.109545,-0.0732348
-0.288862,-0.0543861,0.0849216,0.167637,0.166039,-0.122153
0.457042,-0.672186,-0.453152,-0.2647,0.0499684,-0.233967
-0.419883,-0.723779,-0.143963,0.140041,-0.131225,-0.0562634
-0.721727,-0.603113,-0.763164,-0.105912,0.0134881,0.0891938
-0.343134,-0.436343,-0.479582,-0.122942,-0.156227,0.0962203
-1.14192,0.0729436,-0.0447928,-0.18185,-0.146553,0.0641161
-0.593861,0.537535,0.653714,-0.000775397,-0.0940019,-0.0292787
0.720553,0.883526,0.878125,0.341062,0.152821,-0.0454042
3.39704,0.544299,0.177482,-0.129932,0.197312,-0.0484184
2.47928,0.145907,-0.228684,-0.040126,-0.11702,-0.0790539
0.125561,-0.145218,0.276013,0.0797693,0.0294721,-0.0805116
-0.347761,-0.619467,-0.329555,-0.0819386,0.059693,0.0316353
0.0116346,-0.595237,-0.368333,-0.0254459,0.025227,0.138221
-0.318589,-0.255536,0.0515955,0.0194902,-0.0442534,0.196845
-1.63006,-0.176886,0.125526,0.183847,-0.0713896,0.184258
-2.64351,-0.062218,0.0304157,-0.190681,-0.0234106,-0.0203851
0.474804,0.330325,0.337319,-0.146237,0.0429467,-0.0668938
-0.90317,0.00466116,-0.119112,0.106771,0.0415919,-0.224188
1.34444,0.0488542,-0.380634,-0.127707,0.0761133,-0.125401
0.819256,0.206679,-0.0162828,-0.159095,-0.204633,-0.0555304
-1.77128,0.371523,-0.280273,-0.00434363,-0.190544,-0.30256
-0.090573,0.261635,0.016192,0.0491778,0.155486,-0.170976
1.87327,0.0524521,0.650022,0.223511,0.241378,-0.0808821
3.62157,-0.199897,0.0801206,-0.0908785,-0.00924084,0.00581074
-0.0676456,-0.576007,-0.440997,0.0656713,-0.110784,0.106278
-0.393675,-0.614146,-0.179103,0.038979,-0.0251266,0.173327
-1.01253,-0.659312,-0.766399,-0.043642,-0.128106,0.261594
-1.18445,-0.152621,-0.298804,-0.0766766,-0.23989,0.281268
-1.11651,0.791135,1.1797,-0.0804999,-0.201089,0.17527
-0.31536,1.51301,2.36585,0.181839,0.0530138,-0.0433744
0.470334,0.914439,1.4331,0.621445,0.482885,-0.318806
-1.39338,-0.255514,-1.09554,-0.284442,0.0425858,-0.418963
-1.96464,-1.26752,-0.658809,0.140604,0.134308,-0.187799
-3.37102,-0.794708,-1.47503,-0.188639,-0.00555426,-0.0684118
-0.0847827,-0.111753,-0.915962,-0.0560175,0.0766539,-0.0131372
3.36432,0.386802,0.11624,-0.112539,0.0524276,0.0355523
-0.602084,0.360049,-0.40514,0.0167789,-0.150532,-0.248652
0.638065,0.320602,0.444114,0.319,-0.0142892,-0.0557683
2.59332,0.320198,0.534785,-0.0859773,0.0765865,-0.0493152
2.16266,-0.0689276,-0.022189,-0.00740445,-0.126948,0.0301607
-0.292674,-0.367324,0.0659233,0.0112436,-0.0412099,0.0536348
-0.798056,-0.372206,-0.207478,-0.0771649,-0.0134432,0.16279
-0.516987,-0.10315,-0.0182527,-0.0803189,-0.0531844,0.164674
-1.06337,0.259036,0.492351,0.00599259,-0.0762273,0.113643
-1.69372,0.412688,0.8823,0.13713,0.00291868,-0.0242197
-1.79049,0.304221,0.736764,-0.037892,0.239429,-0.231685
-0.0417819,-0.0416956,-0.277399,-0.0769075,0.145002,-0.275247
-1.08373,-0.827419,-0.869829,-0.0172807,-0.00964072,-0.220014
-0.625849,-0.497803,-0.73862,-0.157288,-0.168387,-0.0825197
-0.633418,0.121602,-0.281054,-0.20168,-0.0916247,-0.065579
-1.95494,0.382312,-0.298421,0.172406,-0.0632609,-0.291046
-0.955855,-0.234842,0.0818413,0.126887,0.11748,-0.161161
1.94673,-0.0549255,-0.0567754,-0.0989748,-0.0146025,-0.0687443
1.39153,-0.183335,-0.000841051,0.122628,-0.0384152,0.0315698
0.176012,-0.33141,-0.187912,-0.0431188,-0.110879,0.087625
-0.313863,-0.229948,-0.0929137,-0.058928,-0.107378,0.146748
-0.708244,0.106592,0.361617,-0.0794786,-0.121002,0.125325
-1.77613,0.390363,1.00988,0.12082,-0.0394489,0.0109501
-1.34747,0.309051,1.38956,0.332227,0.200142,-0.0857592
-1.19953,-0.321827,-0.39195,-0.285991,0.0387253,-0.245777
-0.904761,-0.846831,-0.402021,0.109233,0.0456962,-0.0505252
-0.595496,-0.245641,-0.356274,-0.247705,-0.125718,-0.0292051
-0.50521,0.248122,-0.0409499,-0.185736,-0.14059,-0.0179423
-5.04859,0.0484015,-1.00448,0.104307,-0.157111,-0.486481
-0.0931373,0.0508896,-0.0285917,0.335045,0.208208,-0.0784196
2.87935,-0.15044,0.320078,-0.083529,0.135347,-0.0167753
1.97528,-0.110282,-0.0927918,0.037667,-0.0990149,-0.00591511
-0.309087,-0.608877,-0.202773,0.0435548,-0.0357531,0.0901778
-1.26621,-0.681493,-0.702864,-0.0753161,-0.0945836,0.185449
-0.827083,-0.200845,-0.0334424,-0.125921,-0.129853,0.201692
-0.944976,0.472827,0.83505,-0.0682313,-0.114314,0.15874
-0.598125,0.868395,1.44354,0.136377,0.0667337,-0.0048008
-1.25634,0.521978,1.03064,0.470301,0.204984,-0.268407
-1.88612,-0.472425,-0.592308,-0.251436,0.202712,-0.361085
0.0344703,-1.07748,-0.230531,0.0797291,0.120123,-0.0511788
-0.990562,-0.59973,-0.700889,-0.231616,-0.0125844,0.120534
0.156682,0.0496986,-0.237757,-0.151633,-0.129389,0.128484
-0.870295,0.370799,0.0104792,-0.0179802,-0.307428,-0.201781
-2.30182,0.0345686,-0.597518,0.112113,0.168305,-0.340134
1.57706,-0.160161,0.455234,0.324033,0.0412908,-0.0292224
2.76962,-0.319521,-0.0279124,-0.144536,-0.0534424,0.0640311
-0.670473,-0.522365,-0.294751,0.118632,-0.0579976,0.17948
-0.609551,-0.292543,-0.0415897,-0.0842439,0.0253051,0.179896
-0.764492,-0.280653,-0.323891,-0.0648975,-0.0785573,0.234477
-1.48736,0.0103704,0.110913,-0.0234972,-0.130603,0.220045
-1.46731,0.523187,1.04001,0.0469411,-0.0614321,0.122431
-1.07681,0.66645,1.63533,0.233429,0.0980713,-0.0501531
-1.82989,-0.0651667,0.920846,0.0437743,0.426111,-0.171211
-3.25876,-0.634185,-0.954612,-0.112537,0.132436,-0.0510012
-4.67224,-0.784148,-1.54867,-0.13736,0.263958,0.117909
-0.288198,-0.172517,0.0325961,-0.0767304,-0.291137,-0.167189
-0.898358,0.142941,0.338028,-0.0454576,-0.0251643,-0.202893
0.635043,0.217411,0.225761,-0.0506715,0.189155,-0.00371325
0.882243,0.200217,0.165411,0.216294,0.15426,-0.126585
2.28307,-0.113762,0.152684,-0.0244567,0.0290055,-0.0148077
2.94343,-0.168439,-0.222026,-0.0998049,-0.0704163,0.0318391
0.111136,-0.771018,-0.0425878,0.0887008,-0.00126171,0.161257
-1.8744,-0.973757,-0.734081,-0.0331655,-0.026384,0.280481
-1.50442,-0.494974,-0.898461,-0.105632,-0.135769,0.288218
-0.281663,0.476684,0.482797,-0.107213,-0.231407,0.0936103
-1.15522,0.713335,1.68365,0.0838218,-0.148858,0.0168077
-2.01927,0.491491,1.70835,0.565849,0.264094,-0.128278
-0.479993,-0.313853,-0.330264,-0.159277,0.290595,-0.0650185
-1.48778,-0.896477,-0.175144,0.100012,0.0658768,0.144106
-1.77073,-0.00956569,-0.193147,-0.23966,0.193191,0.0506521
0.303818,0.260337,-0.161345,-0.151132,0.0698693,0.0667941
0.000824212,0.460683,-0.160689,0.0647169,0.15415,-0.0753286
1.4943,0.263717,-0.151073,0.331961,-0.0256001,-0.133214
5.45794,0.0201032,0.3502,-0.0688261,-0.086639,0.0554352
-0.382813,-0.113886,-0.0252811,-0.0887663,-0.145316,0.0687229
1.01773,-0.49406,0.720117,0.00871724,0.222881,0.184858
0.064003,-0.522891,-0.316399,-0.0897904,0.149918,0.279087
0.0245433,-0.14498,-0.302229,-0.121639,0.129892,0.341417
-0.340068,0.452358,0.0720857,0.0828838,0.0857226,0.252214
-2.23934,0.197282,-0.177246,0.339886,-0.0828367,0.180047
-2.91399,0.152117,-0.598138,-0.325266,-0.0451066,-0.0979267
1.37918,0.192339,0.420532,0.133079,-0.112039,-0.159909
0.026521,-0.180168,-0.0741092,-0.108342,0.0578213,-0.123548
0.237355,-0.17503,0.0321312,-0.0540054,-0.0147412,0.00314862
-0.203765,0.0882263,-0.000964728,-0.0818284,0.0196818,0.0125625
0.148952,0.198656,0.0735941,0.0889853,0.0557173,0.0125769
0.520447,0.203691,0.120625,0.222991,0.0960749,-0.074267
1.59225,-0.117424,-0.174208,-0.107807,0.074256,-0.0118927
0.126362,-0.607035,-0.273843,0.00654733,-0.0472429,0.0762722
0.195273,-0.579287,-0.765624,-0.0808776,-0.0221226,0.265124
-0.162171,-0.361992,-0.315909,-0.131388,-0.144688,0.262689
-0.595425,0.184188,0.526659,0.0900578,-0.154856,0.329521
-0.115076,0.818015,1.47906,0.0775116,0.0109778,0.130544
1.23395,0.629811,0.927044,0.255105,0.326311,0.00422251
0.561858,0.260328,-0.846887,-0.121238,0.137929,0.0286833
-3.72856,-0.582642,-1.32723,0.143607,-0.306551,-0.357397
1.45791,0.282865,0.017675,-0.147368,-0.00411177,-0.0629544
3.18762,0.188808,0.693711,-0.133398,-0.041566,0.0515171
0.327378,0.217663,0.17518,-0.0203465,-0.0074582,0.0679113
-1.20176,0.341333,-0.346578,0.0840787,0.0668207,0.0709068
0.0962529,0.322133,0.240982,0.0390121,0.240043,-0.0873036
3.30958,0.286725,0.396265,-0.0111794,0.0657937,0.000306129
1.12004,-0.142697,0.105276,0.0295666,0.0522249,-0.0255685
-0.0702923,-0.720733,-0.484747,-0.141942,0.0402834,0.063867
-0.984246,-0.781782,-0.563571,-0.0736896,-0.0400811,0.221454
-1.32793,-0.263278,-0.0112068,0.0339063,-0.0642467,0.254479
-1.78101,0.16051,0.7745,0.256282,-0.068555,0.192748
-1.6133,0.133911,0.250706,-0.373286,0.0430094,-0.107743
-0.960267,-0.153878,-0.124927,0.247613,0.0453358,0.00706911
0.0610849,0.157171,0.207548,-0.151096,0.0698155,-0.134876
-0.15363,-0.0523135,-0.0248838,-0.0658855,0.00703457,0.00570118
-0.270789,0.227701,0.0870114,-0.121575,-0.0180868,-0.0883947
0.16251,0.318874,0.316689,0.116929,0.140375,-0.117497
1.67617,0.0719345,0.0546237,0.18723,0.197493,-0.0939307
1.99939,-0.22085,-0.63096,-0.017193,-0.0227875,0.093466
1.62672,-0.0685856,0.246934,-0.00240642,0.0361848,0.000530005
0.328282,-0.543376,-0.0446291,-0.133048,0.00575051,0.170051
-1.1846,-0.711385,-0.541283,-0.0740993,-0.0219378,0.225167
-1.79405,-0.334201,-0.207002,0.118622,-0.0966381,0.312071
-1.82245,0.388311,0.889447,0.320065,-0.105199,0.204286
-0.595208,0.466175,0.892565,-0.355987,0.0971518,-0.230909
-1.16084,-0.214443,0.0345427,0.206089,-0.0340008,-0.116037
-1.13186,-0.250503,-0.562554,-0.0505713,0.0459436,-0.114137
-0.131519,-0.178954,-0.162616,-0.220547,-0.0376013,-0.0374565
-0.442314,0.214005,0.0486847,-0.136529,-0.06051,-0.0801936
0.651777,0.770805,0.743653,0.188156,0.0535855,-0.0523832
2.67401,0.280819,0.370877,0.0254723,0.34178,-0.0946298
2.51445,-0.298931,-0.65503,-0.0652339,-0.0224726,0.0173797
0.844472,-0.479868,-0.0870136,-0.0035693,0.00951931,0.00738561
-0.273249,-0.63121,-0.319031,-0.122702,0.0141092,0.217952
-0.00106855,-0.354674,-0.211288,-0.0452694,0.0239795,0.267906
-0.495137,-0.0967573,-0.0404762,0.122513,-0.0636317,0.257236
-2.4449,-0.184709,-0.130999,0.177974,-0.183735,0.15555
-1.78575,0.172193,0.916849,0.0603207,-0.0340855,0.0211161
1.5749,0.916905,1.17903,-0.297574,0.151051,-0.0629907
2.63385,0.524451,0.982628,0.151821,0.276707,-0.0875503
-0.068427,0.0531168,-0.427673,-0.155398,0.110254,-0.0839818
-0.204211,-0.0340075,-0.671108,-0.130708,0.146977,-0.0855875
0.978795,0.382222,0.0143007,-0.0237958,-0.228471,-0.162235
0.141548,0.263658,-0.155681,0.255728,0.0855577,-0.155708
1.51012,-0.587916,0.0726686,0.211439,0.130768,-0.13091
1.21417,-0.980353,-0.439957,-0.145754,-0.20311,0.0673481
-1.50027,-1.11139,-0.511264,0.161215,0.07612,0.177361
-0.47629,-0.70019,-0.543969,-0.13425,-0.0554757,0.33331
0.220312,-0.128058,-0.411373,-0.110485,-0.120243,0.374002
-0.220004,0.493715,0.375359,-0.0189688,-0.180128,0.31341
-1.40487,0.736019,1.14974,0.193358,-0.146586,0.13151
-3.12893,0.410462,1.31898,0.458757,0.151478,-0.0169063
-2.39421,-0.308122,-0.520039,-0.177092,0.10958,-0.35221
0.112247,-0.755092,0.159789,0.0091728,0.158715,0.000951111
-0.882017,0.0216986,-0.076019,-0.235618,-0.0103005,0.0681627
-0.198787,0.27983,0.0213993,-0.186033,0.0692212,-0.0469016
-0.202274,0.49169,-0.0794933,-0.00767893,0.00188842,-0.225882
0.68614,0.553803,0.0632789,0.300405,0.0471209,-0.114563
2.70043,-0.108732,0.156357,0.00793678,0.185014,-0.101213
1.78347,-0.688106,-0.205735,0.080801,-0.166508,-0.0208986
-1.5357,-1.13582,-0.636913,-0.0116804,0.00438224,0.137858
-0.770086,-0.861791,-0.457193,-0.0711297,-0.0720362,0.320216
-0.333716,-0.140563,0.142351,-0.102987,-0.100868,0.334024
-0.310362,0.656528,0.83137,0.000317872,-0.0610133,0.29183
-0.381086,1.24295,1.43709,0.400688,0.164476,0.109307
-6.24732,-0.279581,-1.12584,0.100094,-1.10842,-0.988165
0.5515,-0.698832,-0.487356,0.150207,0.364702,-0.154141
1.00582,-0.136152,-0.141205,-0.240376,-0.0584254,0.118019
1.13602,0.352232,0.287003,-0.150283,-0.0158719,0.102605
0.034815,0.529768,0.201546,-0.0303908,-0.0891798,-0.0544629
-1.37843,0.293559,-0.303553,0.159105,0.150198,-0.155403
1.16524,-0.029855,0.011476,0.13433,0.11868,-0.171494
3.68562,-0.1329,0.256413,-0.057363,-0.0988071,0.119236
-0.355148,-0.301277,0.139059,0.00755805,0.0354685,0.0532504
0.0156279,-0.451546,-0.24741,-0.114794,0.0597087,0.1693
-0.206879,-0.293853,-0.183696,-0.105961,-0.0036103,0.202737
-0.806345,0.107812,0.124976,0.0449923,-0.00431262,0.25722
-0.549535,0.894134,0.619635,0.309313,0.096054,0.191036
-0.0664771,-0.0225169,-0.193083,-0.240874,0.0325262,-0.419765
-0.0959011,-0.672792,-0.522546,0.123887,0.098416,-0.229824
0.308533,-0.415539,-0.340483,-0.184904,-0.0616889,0.182692
0.785243,0.000215835,0.0499648,-0.171597,-0.0741473,0.22608
-0.146601,0.625737,0.0644836,-0.119641,-0.0539127,0.137169
-4.88494,-0.08052,-0.924307,0.356007,-0.346725,-0.574918
0.438767,0.216525,0.174311,0.277408,0.170224,-0.106212
4.0817,0.117874,0.824917,-0.269922,0.105831,-0.00690436
2.28503,0.0990173,0.668607,0.136497,-0.131536,0.0434251
-0.86653,-0.355156,0.0305366,-0.0527422,0.0790422,0.113951
-0.511081,-0.276495,-0.567259,-0.101552,0.0558753,0.177175
-0.132613,0.046717,-0.183197,-0.101439,-0.0563383,0.164194
-0.849563,0.31324,0.308448,0.0847341,-0.0677801,0.0868929
-0.707798,0.533386,0.691018,0.340814,0.0869918,-0.0561838
-2.35549,-0.715779,-0.77082,-0.118495,-0.204467,-0.447759
0.317912,-0.806167,-0.475968,0.0925186,0.0113558,-0.0562603
0.101702,-0.200417,-0.126751,-0.220946,-0.05172,0.202666
0.436836,0.189948,0.051185,-0.142164,-0.0966333,0.0324389
-0.419518,0.398129,0.125863,0.00627255,-0.14398,-0.079239
-1.75344,0.170253,0.101335,0.293204,-0.0289093,-0.0768338
0.222079,0.242146,0.52196,0.0803322,0.172227,-0.280409
1.81586,-0.215539,-0.0398605,-0.0567865,-0.0308818,0.00367755
0.0347925,-0.580443,0.104139,0.0557307,-0.0137684,0.043989
-0.494373,-0.542694,-0.277708,-0.164317,0.0245843,0.109305
-0.0849158,-0.173715,0.03385,-0.0669758,-0.0231761,0.111241
-0.519278,-0.0105676,0.191523,-0.0320218,-0.0761239,0.207539
-1.2957,0.171983,0.380634,0.0760291,-0.00507998,0.0914342
-0.940096,0.0185037,0.101067,-0.00899369,0.0355188,-0.0905998
-0.212192,-0.146885,-0.414095,-0.0184343,-0.0727834,0.0135378
-0.640616,0.0715644,-0.105447,-0.191857,-0.0633118,-0.115424
-0.0400589,0.220077,0.152823,-0.126159,-0.0845899,-0.0581426
-0.0342532,0.497893,0.191165,-0.152401,-0.00360195,-0.199784
-0.427981,0.071321,0.242807,0.104358,-0.0400347,-0.113494
-0.199935,0.321276,0.334009,0.405557,0.173694,-0.212641
2.26211,-0.289297,-0.102184,-0.170258,0.0591909,-0.103022
0.115739,-1.36588,-0.632955,0.0671487,0.0427935,0.020027
-0.467979,-1.25453,-1.49304,0.0829516,-0.0961639,0.239933
0.427958,-0.814639,-0.968315,-0.156696,-0.286983,0.141514
0.230037,-0.0218128,0.40668,-0.125972,-0.408554,0.193761
-0.637022,0.976922,1.84347,0.146268,-0.17223,0.226694
-1.00443,0.94103,1.71835,0.0640917,0.141302,-0.103839
-0.533101,0.437605,0.125618,0.00153613,0.0878854,0.0877956
-1.32485,0.521158,0.342483,-0.178884,0.202085,-0.27593
-0.632878,0.345114,-0.0445949,-0.133841,0.168464,-0.191101
-1.73312,-0.0487487,-0.994618,-0.089727,0.202886,-0.309689
-0.793312,0.175057,-0.611591,0.102946,0.235874,-0.072745
0.015628,0.168211,-1.13563,0.287721,0.151035,-0.00344098
3.40636,0.0688644,-1.18706,0.0923801,-0.175639,0.0513399
2.69238,-0.419402,-0.388412,0.0792287,-0.349854,0.11782
-0.29266,-0.619546,-0.0151564,-0.0188242,-0.397556,0.124561
-0.426889,-0.147037,0.780529,-0.0430295,-0.325645,0.14318
-0.100056,0.288904,1.74852,0.14749,-0.191977,0.162651
-1.84691,0.127422,1.39269,0.319099,-0.0284829,0.31528
-2.80664,-0.0111739,0.838026,-0.103827,0.207646,0.126375
-1.07391,-0.0463134,0.0803565,-0.112623,0.138433,0.213288
-1.83065,0.330064,-0.183424,-0.194776,0.115208,0.166446
-1.36818,0.967186,0.41008,-0.118584,0.0682671,-0.0596063
-0.101472,1.29504,0.958403,0.0858883,0.145708,-0.481851
1.15812,0.368158,0.446795,0.38545,0.27797,-0.63626
1.001,-1.11324,-0.414376,0.194876,0.133446,-0.39397
0.608538,-1.54508,-0.586502,0.0184428,0.147158,-0.130289
0.506711,-1.73984,-0.447191,0.0864544,0.131795,0.217053
-0.927523,-1.49367,-1.57723,0.00623584,-0.0312878,0.448849
-0.156185,-0.667227,-1.2738,-0.0342923,-0.198778,0.54277
-0.316787,0.509859,0.0112883,-0.0309801,-0.33759,0.388331
-1.04555,1.30086,1.68648,0.167284,-0.357915,0.187434
-1.52251,1.54796,2.4978,0.108823,0.0561969,-0.277957
1.89452,0.446275,0.85443,0.152218,0.286988,-0.187979
-1.46652,-0.332216,-0.505209,-0.0380375,0.144917,-0.1784
-0.0239832,-0.0193591,-0.120849,-0.131609,0.248784,-0.0886351
0.871032,0.0896124,-0.0969017,-0.0807497,0.16015,-0.138601
1.65677,-0.184497,-0.237629,0.0882754,0.129254,-0.113459
0.683598,-0.251823,-0.547313,0.199801,0.0403094,0.0223604
1.88269,0.0154864,-0.351974,-0.0670531,0.11091,0.0536556
3.20389,-0.0344827,-0.221316,-0.00039804,0.0117267,0.142076
1.98038,-0.425381,0.0692906,0.0948321,0.016924,0.191129
-0.248496,-0.758817,-0.813271,-0.0202463,0.00380559,0.319108
0.180696,-0.46965,-0.623464,0.0123047,-0.0423466,0.368425
0.0803216,0.37234,-0.309566,0.128376,-0.127861,0.308263
0.843433,0.816614,0.0937263,-0.205281,-0.142995,-0.0156571
-0.227857,0.845036,0.264655,0.121682,-0.0832157,0.169043
2.16875,1.10842,-0.0992666,0.054758,0.180971,-0.00819755
0.571026,0.482725,-0.50435,0.02573,-0.151646,-0.383594
3.91421,0.664233,0.242171,-0.0299944,-0.0129845,0.0936811
2.71303,0.38942,0.247037,-0.0407301,-0.0559913,0.0538296
0.974519,-0.023305,-0.0549267,-0.0262348,0.0278399,0.135605
-0.0362654,0.033943,-0.399429,-0.00156975,0.0497251,0.22879
1.18923,0.620522,0.0325347,0.00919712,0.0997241,0.200318
1.75989,0.93835,0.133978,-0.0993128,0.0927337,0.111803
2.366,0.850571,0.29725,0.0291327,0.174144,-0.0444814
1.94841,0.244249,-0.143732,0.125311,0.0847887,-0.0600756
1.49739,-0.141804,-0.201994,-0.0454291,0.0493928,-0.0671079
1.96287,-0.100751,0.26472,-0.0912076,0.081577,0.00599039
1.68844,-0.104878,0.552854,-0.0774387,0.168705,0.0684744
1.26887,-0.0289848,0.545891,-0.00960916,0.331705,0.124395
1.55693,-0.0130173,-0.323509,-0.0133728,0.36119,0.161531
1.58491,-0.0394847,-0.92918,0.167671,0.264845,0.171211
1.78483,0.208568,-1.6649,-0.00146222,0.1057,0.181263
3.95535,0.0364476,-0.840306,0.0229895,-0.491594,0.0269899
0.767077,0.303839,-0.828514,-0.0624948,-0.237759,0.0746843
0.688715,0.196109,0.264982,-0.105716,-0.235857,0.127044
-0.4099,0.868426,0.918927,0.158766,-0.0817742,0.146769
0.505208,0.645334,0.707877,-0.120302,0.282782,-0.0311479
2.72562,0.45104,0.692543,0.0478879,0.159141,0.031535
0.0455857,0.359481,0.118339,-0.114652,0.182339,-0.0693219
1.57988,0.0911098,0.367265,-0.0285461,0.263968,-0.0546784
-0.577959,-0.238184,-0.276799,0.0644046,0.154151,-0.0406718
-0.0533779,-0.455703,-0.370226,0.0491308,0.203461,0.0173653
-1.30408,-0.721901,-0.593987,0.10346,0.0192022,0.00419867
-1.14714,-0.619587,-1.54846,-0.132004,-0.0424372,0.0695245
0.762374,-0.53075,-0.608239,0.11905,-0.269113,0.0202442
-0.561873,0.124768,-0.195599,-0.179537,-0.277521,0.027312
0.173245,0.442265,0.725736,-0.142995,-0.257301,0.0450577
-0.178653,1.05233,1.22759,-0.0477902,-0.0224776,-0.0588042
0.137153,0.671037,1.15659,0.317514,0.147861,-0.0162692
-1.04668,0.0890283,-0.572597,-0.0249375,0.219404,-0.156045
0.951755,0.0842852,-0.267283,0.0403575,0.149267,0.00852978
2.1583,0.113058,0.273143,-0.0848807,0.169464,-0.173285
0.172625,-0.859229,-0.641366,0.109754,-0.0792627,0.133275
-1.76304,-0.616028,-1.18176,-0.114317,-0.0475429,0.0773883
-0.187222,0.0467443,-0.0285275,-0.0420459,-0.169884,0.244606
-1.00261,0.643139,1.15871,0.298178,-0.0547181,0.0600488
0.679016,0.238591,0.671703,-0.0136748,0.234892,-0.278271
-0.8251,-0.831789,-0.991038,0.100168,-0.103466,0.000277698
0.0984122,-0.545268,-0.192811,-0.140105,-0.00562868,0.00281984
-0.684888,-0.214735,-0.0842327,-0.261404,-0.084827,0.135123
-0.648536,0.247192,0.0142301,-0.168124,-0.0485205,0.100732
-2.69957,0.334932,-0.0251559,0.214329,-0.21765,-0.286029
0.585696,0.1759,0.501536,0.146777,0.304352,-0.0089612
3.02919,0.309309,0.424157,-0.223099,0.0434897,-0.10693
1.89527,0.0524184,0.924443,0.316307,0.00209413,0.0791127
-1.2184,-0.357981,-0.342828,-0.0672836,0.106677,-0.0296483
0.639695,-1.05764,-0.303948,-0.131568,0.0721005,0.110147
-2.22299,-0.635017,-0.523103,-0.0563374,-0.0389867,0.209171
-0.749618,0.815421,1.04362,-0.0984195,0.122219,0.135333
2.627,0.673482,1.10558,0.128262,0.299306,0.119642
-4.28872,-0.767471,-1.10208,0.106753,-0.817883,-0.772494
0.240349,0.0443596,-0.276376,0.0353625,0.13044,-0.178642
1.85373,-0.0440362,-0.576012,-0.186809,0.0212456,0.180435
1.58992,0.306243,-0.0964552,-0.216059,-0.0763316,0.0911403
0.219255,0.470165,-0.26525,-0.0350192,-0.195869,-0.10871
-1.39924,-0.270641,-0.0173175,0.449705,0.101476,-0.066741
3.47735,0.114138,0.603957,-0.0152804,0.0464446,0.119843
1.76301,0.23797,0.00622868,-0.132159,-0.0901645,0.0507796
0.444138,-0.111398,0.519499,-0.0462756,-0.0129918,0.0774156
-1.43156,-0.324909,-0.0229911,-0.0747334,0.0652566,0.183178
-0.5838,0.0619198,0.046198,-0.0732101,0.101091,0.200836
-0.390739,0.56519,0.356255,0.0542492,0.0845612,0.132569
-0.246476,0.822623,0.599618,0.449306,0.190607,-0.00931764
-4.80999,-0.807588,-0.8863,-0.245781,-0.026885,-0.503447
1.53237,-0.502698,-0.0995079,0.326057,0.235842,-0.128464
1.40773,-0.431239,-0.286224,-0.219585,0.0562762,0.12723
1.18619,-0.244792,-0.317834,-0.165475,-0.0588618,0.161114
-0.75189,0.283629,-0.654036,-0.172505,-0.0587755,0.169344
-4.6703,-0.57446,-1.34108,0.352919,-0.462416,-0.653609
-0.471443,-0.35334,0.199928,0.0667931,0.0225599,0.0158682
4.12285,0.523414,0.882832,-0.235327,-0.0165955,0.15491
1.90551,0.397322,0.841777,0.0248781,-0.129541,0.0395078
-1.50366,-0.182302,0.343319,-0.0650564,0.0121124,0.109121
-1.78945,-0.195834,-0.0400134,-0.0902502,0.10645,0.173834
-0.496174,0.261901,0.333945,-0.0306745,0.0773745,0.141732
-0.54078,0.605714,0.533335,0.000896573,0.13659,0.0318484
0.0775867,0.607348,0.653825,0.425996,0.255576,-0.0880029
-4.9515,-0.738258,-1.0111,-0.324946,-0.0880181,-0.402484
1.68463,-0.567721,-0.175878,0.260907,0.064237,-0.0924554
0.427872,-0.336764,-0.592933,-0.1856,0.0590036,0.0815266
1.27067,-0.0820079,-0.243156,-0.12627,-0.0572587,0.118794
-0.229891,0.351269,-0.217748,-0.130661,-0.0332262,0.0957893
-1.94316,0.256764,-0.379478,-0.0191843,-0.108035,-0.171819
0.253667,0.383653,0.796316,0.334308,0.126226,-0.0412203
1.91974,0.209033,0.326038,-0.09698,-0.127781,-0.166183
1.88004,-0.293339,0.241504,0.133628,-0.0539521,-0.052753
-1.28479,-1.0189,-0.548495,-0.0211727,0.00129259,0.071525
-1.58257,-1.08354,-0.814118,-0.0373187,-0.0507991,0.246221
-1.06196,-0.546542,-0.18668,-0.0492495,-0.140764,0.304353
-0.926453,0.112027,0.752159,-0.0538697,-0.137437,0.249044
-1.59989,0.466846,1.3138,0.246958,-0.0536017,0.292228
-1.72003,0.797031,0.878475,-0.147452,0.259415,-0.0605406
-1.45802,0.30854,-0.243393,0.170972,0.28005,-0.0258868
-0.276293,0.398165,-0.335034,-0.136543,-0.041846,-0.294289
-1.123,0.0857241,0.108598,-0.0499145,0.110961,-0.258644
-0.0760792,0.10516,0.195396,0.0170586,0.0938564,-0.244543
0.0725859,-0.100361,0.0623669,-0.00277585,0.161345,-0.256263
0.12336,-0.0268931,-0.146986,-0.0730865,0.134029,-0.157297
1.79345,0.0057623,0.531459,0.154142,0.278739,-0.23694
2.17697,-0.936333,-0.37765,0.250774,0.0869763,-0.042215
0.584822,-1.51836,-0.906922,0.000643194,-0.0207609,0.13046
-0.0129984,-1.32531,-0.632278,-0.00328863,-0.0514899,0.35458
-0.537939,-0.686328,-0.337992,-0.0523502,-0.0963831,0.49409
0.276664,0.325223,0.256985,-0.0970612,-0.0820328,0.457359
0.447234,0.868894,0.852637,0.0178037,-0.0709054,0.284848
-1.79262,1.17173,1.06252,0.390517,-0.0289398,0.199403
-0.897673,1.10631,0.385316,-0.289991,0.202124,-0.281227
0.0619039,0.0924071,-0.279498,0.271095,-0.00154914,-0.211728
-0.986316,-0.0568176,-0.643492,-0.15665,-0.0109188,-0.336292
1.56077,0.197598,0.323064,-0.115717,0.0228487,-0.188865
0.808892,0.313053,0.549987,-0.0665276,0.0495451,-0.123606
0.659344,0.0599967,-0.119579,0.0493407,0.185844,-0.0952702
1.20312,0.253382,-0.330967,0.152459,0.0986284,-0.0824474
2.72728,0.138263,0.0461717,-0.155927,0.0521552,-0.135832
1.91249,-0.508411,0.365224,0.205565,-0.0297108,-0.0453033
-0.555988,-1.16846,-0.530444,-0.0257628,0.0354121,0.123373
-1.06334,-1.05196,-0.937822,-0.0205703,-0.0298027,0.35251
-0.249272,-0.260818,-0.0631715,-0.0849519,-0.10003,0.366425
-0.785102,0.566511,0.530609,-0.0388878,-0.127045,0.297992
-1.13202,0.968908,1.40427,0.337137,-0.0441975,0.169439
-1.00893,0.768957,0.405813,-0.248345,0.137391,-0.229194
-1.70525,-0.309686,-0.428677,0.258853,-0.0533617,-0.286317
-0.173327,-0.202212,-0.506714,-0.202466,0.128858,-0.185838
-0.074187,-0.153467,0.0393462,-0.118017,-0.0916651,-0.0670973
-0.618715,0.242863,0.265139,-0.0854955,-0.118471,-0.132921
0.801738,0.41321,0.190045,0.159576,0.144698,-0.0672021
0.0923057,0.0359179,-0.0788717,0.142615,0.117529,-0.192105
1.26786,-0.394893,-0.461293,-0.0604619,0.0562828,-0.104845
1.22236,-0.762166,-0.2109,0.0185996,-0.0462215,0.0428988
-0.49948,-0.839598,-0.48516,-0.0544767,-0.0791203,0.239002
-0.651664,-0.523427,-0.129572,-0.0693081,-0.0893028,0.264152
-1.20316,-0.0899333,0.449432,0.00519228,-0.136486,0.270774
-1.68953,0.339263,1.00455,0.16081,-0.0562596,0.201909
-1.68549,0.536179,1.01297,-0.130651,0.152891,-0.0716131
-0.0739316,0.421314,0.1662,0.04178,0.149926,-0.0740775
-1.28951,-0.0332344,-0.399609,-0.0880451,0.0108287,-0.253904
-0.473638,-0.0221921,-0.139828,-0.158372,0.0262931,-0.201483
-0.530785,0.0406272,-0.0580993,-0.125067,0.0349054,-0.219495
-0.303449,-0.0446918,-0.0736395,0.0228316,0.0423703,-0.191233
-0.0783363,-0.0853227,0.0156885,0.359895,0.137117,-0.12516
0.616928,-0.287935,-0.580126,-0.0923822,0.0544354,-0.102199
0.600176,-0.783987,-0.481316,0.140498,-0.0696786,0.0328796
-0.350689,-0.926872,-0.95236,-0.0301298,-0.145591,0.175738
-0.396501,-0.643796,-0.52808,-0.0575674,-0.249407,0.256999
-0.701201,0.0895707,0.515967,-0.127369,-0.276269,0.240391
-0.734932,0.810974,1.81152,0.0420533,-0.13056,0.139174
-0.66874,0.989681,2.08297,0.484616,0.219259,0.0352211
-0.0200817,0.383004,-0.0162399,-0.228587,0.210311,-0.299668
-0.44807,-0.430876,-0.477478,0.131226,0.138749,-0.134619
-0.984016,-0.444156,-1.13668,-0.148614,0.0664901,-0.181214
1.2909,-0.354502,-0.289754,-0.113913,-0.189446,-0.06194
-0.239659,0.19579,0.111018,-0.127436,-0.320493,-0.0859243
-1.45917,0.0476627,0.0994858,0.00299901,0.0598859,-0.0294786
-0.566407,0.185378,0.128736,0.199321,0.0290135,-0.00278366
0.268404,0.048589,-0.167895,-0.0837072,0.119713,-0.16193
0.085614,-0.596275,-0.412375,0.169138,-0.0436781,0.000796914
-0.492099,-0.501039,-0.707039,-0.0855994,-0.0553134,-0.00457197
0.245427,-0.459135,-0.19656,-0.0805049,-0.16726,0.101551
-1.0571,-0.228342,0.145001,-0.105135,-0.170706,0.100797
-0.487059,0.0680025,1.03237,0.0891895,-0.0966831,0.0337867
-1.87238,-0.0097305,0.945011,0.414431,0.0362854,0.120513
-0.603827,-0.190317,0.0205485,-0.36328,0.0655917,-0.139355
-1.83313,-0.758857,-0.152353,0.118272,-0.0437805,0.0409231
-1.04587,0.13149,-0.0329603,-0.339641,0.00589234,-0.0224463
-0.339742,0.132966,0.484699,-0.11519,-0.0787354,-0.204516
-1.54494,-0.0650361,-0.167979,0.036685,0.0638002,-0.209427
0.0761007,-0.0130284,-0.0757845,-0.0322614,0.127311,-0.10911
-0.511904,0.0820474,0.303993,0.541031,0.0106865,-0.0297326
0.303143,0.0390437,-0.386983,-0.282598,0.118761,-0.140794
-0.159148,-0.838867,-0.146165,0.103535,-0.131711,0.0334095
-1.87235,-0.810787,-0.947223,-0.0797561,-0.0204671,0.130152
1.12962,0.0628201,-0.00503368,-0.0631444,-0.0358269,0.211301
0.850622,0.53012,0.778315,-0.0285455,-0.111098,0.0948201
-1.48487,0.310464,0.670705,0.0734214,-0.0189938,0.104441
-0.465812,0.600271,0.810443,0.258715,0.160606,-0.121239
-0.870484,0.0739098,-0.150837,-0.184796,-0.0641783,-0.319158
-0.470329,-0.785295,-0.589801,-0.026851,0.122614,-0.188324
-1.2523,-0.46532,-0.814188,-0.274898,-0.117054,-0.00928068
-0.76309,0.130203,0.0184251,-0.130691,-0.0990804,-0.0390815
-0.329489,0.540664,0.395534,0.0724418,-0.114329,-0.187001
1.42639,0.268883,0.861119,0.483553,0.153121,-0.0647099
0.0841319,-0.151405,-0.106605,-0.0976306,0.0709498,-0.09276
1.30951,-0.364188,0.10343,-0.0539802,0.134634,-0.00412428
0.926673,-0.553283,-0.289394,-0.0326402,0.0572991,0.0790657
0.13058,-0.549452,-0.477222,-0.0472234,0.0107618,0.220657
-0.298229,-0.103212,-0.153815,-0.038055,-0.0252565,0.198603
-0.180791,0.0977742,0.282028,0.0954667,-0.0616621,0.133142
-1.11631,0.0303605,0.197619,0.118674,-0.0764914,0.0680761
-0.372148,0.129936,-0.036026,-0.264801,-0.0718925,-0.0542947
-0.396182,0.185145,0.602869,-0.0318664,-0.082188,-0.0589188
-0.195075,0.37343,0.483961,-0.178432,0.0605899,-0.0298777
-0.289645,0.528984,0.205421,-0.097709,0.106751,-0.107463
0.152469,0.490359,0.121598,0.0538923,0.103774,-0.194529
-0.221658,0.152238,-0.262404,0.300862,0.183907,-0.180645
1.13254,-0.260608,-0.667453,-0.020826,0.123288,-0.107515
2.65469,-0.379999,-0.201454,0.0473396,-0.0307111,-0.0303878
0.184579,-0.832649,-0.443139,-0.0634502,-0.115228,0.150442
-1.27448,-0.583557,-0.439573,-0.0559481,-0.0842808,0.29536
0.0206261,0.175291,0.454481,-0.160789,-0.0458155,0.255566
0.113925,0.65096,0.793426,0.11552,-0.0161538,0.235014
-0.609277,1.04423,0.940086,0.290926,0.161158,0.115451
-4.23068,-0.134287,-0.508841,0.0432903,-0.793587,-0.925085
-0.139446,-0.630116,-0.603328,0.188585,0.315855,-0.20225
1.63049,-0.464271,-0.696933,-0.195133,-0.0425118,0.0650749
1.73445,0.160302,0.056344,-0.166432,-0.132941,0.0887871
-0.169037,0.425712,-0.0468638,-0.0812872,-0.0783249,0.0675774
-2.48515,0.229503,-0.355582,0.271871,-0.0080654,-0.152339
0.741165,0.0938981,0.325679,-0.0458218,0.193865,-0.121423
2.89784,0.129577,0.281549,-0.0395719,-0.0745702,-0.00144362
-0.212259,-0.257711,0.223143,0.0186699,0.00278258,0.0452291
-0.845724,-0.273102,-0.210165,-0.127494,0.0423799,0.111862
-0.0711989,-0.0214339,-0.0528087,-0.0946419,0.0193136,0.130313
-0.927,0.1548,0.0754442,0.0657229,-0.0579373,0.0844499
-1.14814,0.170838,0.435897,0.206216,-0.0100991,-0.0874004
-1.00254,-0.290125,0.206726,-0.0455669,0.0730598,-0.219162
-0.566637,-0.879906,-0.781378,-0.013853,0.0245236,-0.0664193
-0.306752,-0.648161,-0.320395,-0.173541,-0.0994199,0.131515
-0.648061,0.0576704,0.297125,-0.176733,-0.130321,-0.0264719
-2.53381,0.148424,0.480175,-0.207016,-0.0490134,0.100244
0.60726,0.804892,0.963743,0.0907067,0.16203,-0.079136
1.84146,0.688026,0.73373,0.349183,0.292645,-0.174536
0.784671,-0.521161,-0.570477,-0.0119172,-0.0398733,-0.129657
-0.727234,-1.02343,-1.02503,0.0102841,0.103298,-0.0142904
0.415985,-0.839015,-1.16645,-0.040221,-0.0722655,0.163457
0.202043,-0.455763,-0.702412,-0.120131,-0.22872,0.200498
-0.967376,0.0121331,0.331038,0.0409135,-0.251973,0.221883
-1.23845,0.485768,1.28685,0.236829,-0.168363,0.146739
-0.481339,0.733212,1.35193,-0.191315,0.114295,-0.16922
-1.29835,-0.123832,0.144323,0.21172,-0.0535364,-0.268755
-1.29051,-0.265303,-0.281594,-0.136176,0.093904,-0.0895478
-0.0725873,0.12115,0.169746,-0.176302,0.13756,-0.0444899
-0.00778849,0.330805,0.157424,-0.04957,0.102106,-0.117938
0.475431,0.318763,0.0697585,0.0625129,0.147543,-0.12527
1.77107,0.142171,0.0717622,0.204212,0.262556,-0.16718
2.55672,-0.443704,-0.547269,-0.0188575,0.0459335,-0.000249147
0.743833,-0.73509,-0.573943,-0.0281993,-0.0364462,0.0358205
0.186227,-0.716569,-0.612394,-0.104495,-0.0628871,0.218858
-0.47367,-0.365953,-0.310782,-0.0897542,-0.1407,0.23621
-0.138197,0.064715,0.451735,0.134971,-0.0784789,0.236738
-1.38661,0.597777,0.759337,0.246843,-0.108716,0.0656059
-0.186873,0.606547,0.50418,-0.137895,0.0337672,-0.143881
-1.60375,-0.165081,-0.0154208,0.0862172,-0.0084973,-0.157729
-0.656942,0.0237147,-0.091611,-0.148416,0.0132427,-0.0946954
-0.555181,0.0810763,0.0990076,-0.129768,0.00320864,-0.120164
0.114356,0.27851,0.374086,0.100594,0.0827329,-0.142338
0.923527,0.228977,0.246243,0.227603,0.185216,-0.136276
1.39677,-0.314083,-0.388143,-0.0643167,0.0770288,-0.0694084
1.07004,-0.526801,-0.145374,0.0105509,0.0404248,-0.0353073
0.45422,-0.68063,-0.390966,-0.107339,0.0205024,0.132531
-0.424642,-0.59586,-0.530569,-0.0689808,-0.046912,0.242642
-0.847011,-0.148552,-0.202796,-0.0250866,-0.0918882,0.238495
-0.954747,0.340002,0.229135,0.104757,-0.108233,0.185784
-0.615806,0.585474,0.884797,0.0480189,-0.0593695,-0.0423309
-0.088626,0.439348,0.535441,-0.01875,0.0587941,-0.0969516
-0.566331,0.0523665,0.03039,-0.00145209,0.038985,-0.134631
-0.234105,0.0361584,0.00847,-0.154156,0.0644296,-0.114348
0.0142575,0.221165,0.127812,-0.104666,0.0907699,-0.162118
0.53871,0.104746,0.14029,0.128249,0.0934166,-0.180773
0.398398,-0.198451,-0.166162,0.21214,0.129877,-0.139497
1.0021,-0.502155,-0.579806,-0.123186,0.0364636,-0.0422077
0.819571,-0.557474,-0.18137,-0.00426561,-0.0197007,0.0905552
0.446346,-0.465603,-0.3827,-0.128307,-0.0232308,0.174487
-0.101186,-0.333212,-0.361195,-0.0953631,-0.0955416,0.228409
-0.960243,0.0451956,0.0591239,0.104294,-0.131422,0.224458
-1.19073,0.523129,0.752002,0.278439,-0.0824789,0.114416
-0.123752,0.525639,0.370069,-0.0993412,0.00101785,-0.136078
-0.730262,-0.0635307,-0.000260731,-0.020961,-0.0738447,-0.126361
0.115204,0.0443883,0.10878,-0.177527,0.00454447,-0.137265
0.123601,0.0507634,0.132425,-0.0815995,0.0324193,-0.147519
0.599243,-0.0571017,0.158267,0.141916,0.071094,-0.137221
0.787342,-0.22958,-0.233451,0.297505,0.100684,-0.00977331
0.879856,-0.528619,-0.779238,-0.0416447,-0.0109987,0.131789
0.676636,-0.477429,-0.584584,-0.0708989,-0.0822466,0.19581
0.148645,-0.240783,-0.373444,-0.0243532,-0.123789,0.303441
0.0600427,0.161607,-0.212099,-0.00539392,-0.103537,0.306164
0.345574,0.607369,-0.0529779,-0.0399426,-0.11312,0.253861
-0.305086,0.255411,0.569658,0.0379261,0.050676,0.00286847
-0.150135,0.177604,0.546873,0.0129064,0.171377,-0.00886577
-0.117533,-0.00650205,0.239047,-0.0148959,0.215807,-0.0110535
-0.285322,-0.139387,0.0616847,-0.0392754,0.183425,-0.0203511
-0.821719,-0.320971,-0.124096,0.00547814,0.161467,0.0143882
-1.72091,-0.326547,-0.689976,-0.0953662,0.0850466,-0.00731611
-0.954962,-0.294188,-0.414728,-0.0684719,-0.0798908,-0.0597825
-0.15291,0.12769,0.092903,-0.0346656,-0.0108449,-0.0550199
1.17665,0.128846,0.0394284,0.0257916,0.0161471,-0.0282781
0.929507,0.0534955,-0.10355,-0.0343379,-0.0715996,-0.00521791
-0.265636,0.103278,0.120553,-0.0581957,-0.075661,-0.0336267
-0.371849,0.052257,0.148312,-0.0137519,0.0450969,-0.0712402
0.0845404,-0.0481163,0.0497188,-0.0209461,0.0396706,-0.0637626
-0.0415822,-0.0746189,0.0140622,-0.0171967,0.000388473,-0.0478931
-1.01729,-0.381523,-0.0298844,-0.0033536,-0.126832,-0.109149
-1.2786,-0.499506,0.048646,0.000337481,-0.0547584,-0.0906178
-0.691973,-0.281731,0.0807746,-0.0679086,-0.0565206,0.00815099
-0.553681,0.18857,0.460918,-0.123366,-0.0385666,-0.00275576
-0.364965,0.3566,0.495002,-0.0645386,0.0432604,-0.0923528
-0.334609,0.186341,0.193572,-0.00529701,0.0809496,-0.178906
-0.206584,0.0234439,-0.0382314,-0.0540318,0.0537424,-0.189459
-0.153352,0.216055,0.0232096,0.115036,0.11048,-0.126965
0.0367377,0.0329014,-0.247483,0.0345459,0.130784,-0.168806
-0.13032,-0.486329,-0.664301,-0.0785421,0.0301892,-0.0600586
0.567003,-0.314532,-0.147982,0.000802696,0.0218778,0.0258511
0.131404,-0.253496,-0.2761,-0.153951,0.0153589,0.129648
0.313914,0.0655961,0.130373,-0.0553088,-0.0583407,0.148795
-0.404757,0.229968,0.48612,0.203929,-0.036009,0.106099
-1.36001,0.184858,0.632733,0.337451,-0.00966385,0.0363519
-0.479235,0.0268589,-0.128055,-0.31314,0.137186,-0.178426
-0.0904461,-0.309815,-0.0472911,-0.0393983,-0.0351069,-0.0429212
-0.472339,0.0311258,-0.167592,-0.182973,0.0856178,0.0109144
0.0568796,0.289417,-0.233591,-0.194891,-0.0069899,-0.102749
0.523415,0.480591,0.117351,0.0699545,-0.0243742,-0.17808
1.56686,0.404162,0.442968,0.296182,0.0834158,-0.14912
1.76598,-0.245164,-0.129112,-0.000406623,0.104168,-0.0681767
1.02644,-0.68316,-0.202371,-0.0402284,0.0454693,-0.0132043
0.363708,-0.900783,-0.609041,-0.124387,0.0135534,0.201234
-0.332443,-0.53738,-0.254315,-0.0187563,-0.0455219,0.274567
-0.724303,0.00782041,0.145448,0.159861,-0.0792625,0.265413
-0.795934,0.355872,0.4473,0.174747,-0.106618,0.16912
-0.706252,0.596375,0.430941,-0.24138,0.0134305,-0.0727843
0.185905,0.287052,0.354638,0.0384409,-0.0418522,-0.0636953
-0.837171,0.185685,0.0636826,-0.162855,0.0403625,-0.129162
-0.280414,0.223591,0.0742325,-0.138,0.032773,-0.178138
0.318658,0.266774,0.174137,0.0126712,0.0556695,-0.17997
0.336566,0.188029,0.0202346,0.247507,0.146071,-0.13392
1.59383,-0.154512,-0.324958,-0.0221405,0.17217,-0.117463
1.52781,-0.524873,-0.387431,0.0367509,0.00376391,0.00270075
0.632746,-0.683882,-0.401699,-0.0177791,0.0146146,0.120807
-0.350061,-0.841629,-0.919124,-0.0660471,-0.0925614,0.271378
-0.479677,-0.226412,-0.371921,-0.0120366,-0.197939,0.311703
-0.839288,0.478213,0.858915,0.151573,-0.247057,0.191598
-1.16031,0.808285,1.43421,-0.0480331,-0.0201757,-0.0896548
-0.0243508,0.38715,0.803998,0.129113,-0.0319248,-0.14114
-0.964675,-0.281475,-0.10754,-0.135542,0.125486,-0.129169
-0.718956,-0.226244,-0.343583,-0.200871,0.0527835,-0.0786254
-0.023798,0.0925358,-0.151857,-0.102705,-0.0240084,-0.145649
-0.474188,0.159916,-0.106705,0.123592,0.0157717,-0.0758637
0.12332,0.0573015,-0.153367,0.0461981,0.108647,-0.126108
1.35751,0.00745779,-0.284957,0.0496727,0.106919,-0.000409365
1.49812,-0.387515,-0.457496,0.13029,0.0691026,0.0130486
-0.477609,-1.05429,-1.42144,0.0298984,-0.154014,0.158203
-0.268785,-0.659681,-0.849855,-0.0574663,-0.332615,0.197862
-0.204829,0.291584,0.388746,-0.146889,-0.371375,0.208369
-0.00637349,1.22677,1.69313,0.0634263,-0.223223,0.122635
-1.95082,1.04718,1.93147,0.507331,-0.0613534,0.096055
-0.653969,0.218434,0.534708,0.073702,0.261202,-0.221628
-1.867,-0.760773,-0.534867,-0.0566862,0.0683563,-0.100688
-1.56069,-0.525736,-0.58409,-0.2847,0.0571138,-0.0561454
-0.824707,-0.119767,-0.168221,-0.224621,-0.0904843,-0.11379
-0.421058,0.313005,0.485849,0.128466,-0.102047,-0.185458
-0.685669,0.193965,0.569706,0.253265,0.0833365,-0.201181
1.24756,-0.372635,0.339472,0.0420364,0.151957,-0.225424
-0.0612068,-1.2497,-0.27088,0.0215647,0.0919367,-0.0886258
0.246089,-1.29141,-0.388342,-0.152665,0.108478,0.202379
-0.659234,-0.807523,-0.207423,0.132991,0.0352944,0.380832
0.924132,0.080144,-0.212845,0.00332433,-0.00132787,0.198362
0.187984,0.204093,0.060291,0.282117,-0.197655,0.15512
-0.847064,0.294297,-0.0350378,-0.237095,-0.108203,-0.0351704
-1.02802,0.428464,0.29791,0.0296398,-0.0809539,0.0959526
-0.893961,0.796686,0.264811,-0.25688,-0.018224,0.00274718
-0.718094,1.05838,0.381101,-0.075862,0.0367515,-0.0530239
0.434903,1.07132,0.562258,0.104232,0.126276,-0.250779
-0.600042,0.819878,0.283101,0.324423,0.0801428,-0.36684
0.79986,-0.297676,-0.0811007,0.176773,0.28476,-0.306812
1.7731,-0.73582,-0.350172,-0.000621915,0.187256,-0.169602
0.576138,-1.31812,-0.925289,-0.0995298,0.0161244,0.0265606
-0.11542,-1.26858,-1.18693,-0.129552,-0.0750791,0.241997
-0.956058,-0.617781,-0.382284,-0.0378035,-0.197971,0.274869
-0.958893,-0.108083,0.357054,0.0973361,-0.266676,0.184489
-1.81473,0.456444,1.38325,0.0874774,-0.148019,0.0525448
0.610743,0.729345,1.15348,-0.123437,0.031035,-0.0729339
-1.15612,0.24969,0.465814,0.0398906,0.0614361,-0.0248552
-0.928443,0.396597,-0.225574,-0.294753,0.165202,-0.157613
0.497277,0.647688,0.325693,-0.0490489,0.111965,-0.205743
0.7542,0.48786,0.176711,0.217345,0.265983,-0.216023
3.19712,-0.413345,-0.0570402,0.0314683,0.213005,-0.279985
2.46265,-0.718317,-0.00616737,0.186136,-0.13163,-0.130979
0.912929,-1.52713,-0.434082,-0.172158,0.0692981,0.0952321
-1.68205,-1.68156,-0.96657,0.16707,-0.110617,0.511096
-1.97204,-0.619089,-0.637907,-0.0770186,-0.14222,0.381557
-0.217245,0.476726,0.731058,0.203113,-0.219142,0.194354
-1.58636,1.0619,1.61544,0.00114739,-0.252664,-0.163945
0.1575,0.647684,1.27905,0.0346643,0.104526,0.0288563
-1.83958,0.109764,0.172335,-0.145366,0.0480155,-0.0843816
-1.33674,0.345709,0.148886,-0.185845,0.235868,-0.0460198
0.427014,0.988295,0.600802,-0.13649,0.282749,-0.231492
2.72764,0.156397,0.318258,0.636287,0.378993,-0.434651
0.272611,-1.21559,-1.38173,0.119566,0.159497,-0.272708
2.6421,-1.29311,-0.565688,0.0415182,0.00945598,0.02319
0.706006,-1.48223,-0.608863,-0.0716613,-0.0201598,0.297718
-0.342288,-1.27274,-0.897181,-0.0655647,-0.100575,0.541104
-0.852007,-0.248493,-0.337563,-0.132662,-0.198273,0.489351
-0.974416,1.02965,1.11168,0.176117,-0.260105,0.430768
-0.313182,2.06772,2.51436,0.462942,-0.038316,-0.00460052
-0.319599,0.972946,0.336457,0.018523,0.0592008,-0.0697305
-1.20891,0.039122,-0.153452,-0.0218323,0.0298455,-0.177263
-1.66097,0.420523,-0.0829185,-0.224867,0.182504,-0.184309
0.671549,0.512369,0.322442,-0.0956231,0.188061,-0.337117
0.728756,0.0525462,0.0665757,0.188523,0.174263,-0.351719
0.504042,-0.548589,-0.412917,0.329999,0.20963,-0.269131
1.19408,-1.09188,-0.785739,0.0596189,0.0919181,0.00743282
1.58551,-1.08053,-0.47401,0.0699601,0.0337636,0.138923
0.658283,-1.08931,-0.943848,-0.048485,-0.0405929,0.347826
-0.0693475,-0.673673,-0.789752,-0.0795676,-0.165387,0.410606
-0.875944,0.217636,0.148882,0.0450096,-0.236228,0.393858
-1.19716,1.11705,1.30822,0.333113,-0.194077,0.228711
-1.10883,1.28197,1.32512,-0.20259,0.0237487,-0.183965
0.976289,0.607813,0.850453,0.243682,0.128505,-0.140993
-1.54739,0.0224275,-0.461342,-0.122063,0.0941395,-0.261612
-0.243807,-0.115919,-0.188395,-0.187049,0.121791,-0.146036
-0.140835,0.195884,-0.138279,-0.119425,0.100372,-0.161195
0.303168,0.148701,-0.0914544,0.0756743,0.102366,-0.164175
0.664465,0.0867035,-0.0969288,0.417455,0.188782,-0.184233
2.7898,-0.395924,-0.403229,-0.0222912,0.133819,-0.0392834
2.33372,-0.80432,-0.491508,0.0707536,-0.0855487,0.118162
-0.146528,-0.996139,-0.823498,-0.0779983,-0.142363,0.2842
-0.636465,-0.530704,-0.447263,-0.115637,-0.191075,0.35392
-1.22969,0.263558,0.572043,0.061452,-0.26645,0.285945
-1.85898,0.881135,1.64359,0.340451,-0.164935,0.169385
-0.921619,1.13919,1.32631,-0.211724,0.242496,-0.231927
0.643467,0.11321,0.357856,0.0818355,0.0864305,-0.147848
-1.73012,-0.375585,-0.321686,-0.137855,0.187066,-0.177776
-0.264629,-0.0807524,-0.268965,-0.180623,0.192475,-0.105036
0.278112,0.0412577,-0.270438,0.0258197,0.103794,-0.14605
0.410099,0.00286687,-0.375976,0.259394,0.0502184,-0.138086
0.85817,-0.314617,-0.589009,0.0125315,0.0729543,-0.109885
1.64683,-0.569628,-0.493094,0.10842,-0.0691769,0.0630124
0.539385,-0.726309,-0.67359,0.0178651,-0.118927,0.201364
0.142394,-0.615283,-0.775627,-0.0586365,-0.210126,0.349241
-0.285079,0.0373452,0.020852,-0.0722744,-0.302634,0.334849
-1.48703,0.731881,1.45521,0.0921844,-0.261178,0.239568
-1.5923,1.36613,2.46523,0.268508,0.0881288,-0.0458602
0.669152,0.768831,0.630532,-0.0598534,0.305574,-0.355331
-1.98719,-0.703144,-0.732215,0.0265681,-0.0291951,-0.192726
-1.72487,-0.549931,-1.22086,-0.235825,0.112725,-0.189331
-0.172296,0.0852492,-0.324833,-0.181701,-0.0924249,-0.166514
0.688625,0.305821,0.467396,0.43171,0.0439816,-0.104821
0.490225,-0.313336,-0.355473,-0.00262511,-0.00202881,-0.105068
0.374027,-0.687858,-0.686202,-0.0011158,-0.0782641,0.0610306
0.219677,-0.44302,-0.323089,-0.0106712,-0.11171,0.125869
0.0925164,-0.0917323,0.0145492,-0.119529,-0.134502,0.19773
-0.301357,0.474668,0.708696,-0.0278082,-0.123744,0.132343
-1.29687,0.592377,1.17378,0.0954574,-0.0178995,-0.024742
-1.80252,0.378824,1.04941,0.381142,0.234514,-0.093857
-1.26227,-0.0629486,-0.418409,-0.294892,0.160085,-0.327002
-0.812022,-0.970109,-0.782877,0.143072,0.0563098,-0.0742059
2.33997,-0.412487,-0.921176,-0.183695,0.0993883,0.0749063
1.42307,0.193674,-0.161247,-0.240208,-0.424458,-0.00679952
-2.2681,0.611479,0.0481402,-0.0229535,-0.409802,-0.171163
-1.95485,0.497365,-0.0102997,0.137302,0.202061,-0.0773252
1.74921,0.112359,0.50958,0.0292014,0.208627,-0.226789
2.21331,-0.439195,-0.180578,0.010843,-0.0674963,-0.00510806
-0.738928,-0.968151,-0.326996,0.156402,-0.0199568,0.0504926
-1.52995,-1.08133,-0.885127,-0.0296399,-0.0948405,0.230923
-1.19882,-0.777194,-0.626839,-0.0834879,-0.23396,0.228962
-1.14167,0.100594,0.753095,-0.0823885,-0.266633,0.143232
-1.1294,0.918819,2.08654,0.0772668,-0.0910112,0.0446321
-1.10326,0.802819,1.87387,0.391822,0.279003,-0.0434343
-1.87725,-0.166882,-0.128677,-0.0948374,0.2049,-0.306633
-3.6495,-1.05099,-0.986254,-0.0579246,0.198971,0.0527679
-0.891183,-0.564435,-1.00796,-0.102784,0.113216,-0.0387512
0.760032,0.118609,-0.24256,-0.177327,-0.109431,-0.0694066
-0.85083,0.305984,0.116968,-0.155326,-0.13136,-0.137343
-0.086946,0.494831,0.367416,-0.0756251,0.00606787,-0.15453
0.260773,0.619082,0.505071,0.12929,0.137935,-0.0662954
3.11326,0.349915,0.0301244,0.123759,0.244425,0.0424287
2.83132,-0.147855,-0.674954,-0.0860354,-0.0650623,-0.0620852
0.217458,-0.615564,0.11285,-0.0151094,-0.16028,-0.0666163
-3.1855,-1.08446,-0.473444,-0.0380552,-0.0793194,0.185544
-1.89738,-0.495739,-0.343804,0.0222225,-0.0190232,0.176293
0.477348,0.177139,0.622529,0.00308543,-0.142116,-0.0265387
-1.15274,0.142033,1.08378,-0.0146422,-0.127703,0.0220366
-1.45796,0.143287,1.21416,0.216733,0.154992,0.0874698
-1.4287,-0.121584,0.405286,-0.172642,0.268383,-0.115584
-1.75792,-0.496851,-0.546725,0.0577801,0.145773,0.0752423
-1.78737,-0.327574,-0.539723,-0.104931,0.0180264,-0.108095
-0.91102,-0.0803191,-0.0878377,-0.11732,-0.0462133,-0.0700634
0.189178,0.225348,0.254104,-0.115985,0.00539944,-0.157881
-0.14554,-0.00645126,0.228057,-0.0558698,0.00111645,-0.101527
-0.852466,-0.0420094,-0.210344,0.0513625,0.0586228,-0.0273044
-0.0372452,0.195752,0.0898898,0.133355,0.169205,-0.0636594
0.104448,-0.232087,-0.596547,-0.0402812,0.0484971,-0.0974437
0.254178,-0.414214,-0.626795,0.259564,-0.0227847,0.166844
2.0544,-0.151633,-0.316496,-0.0683819,-0.107094,-0.0478231
-1.37424,-0.737709,-0.503589,-0.101435,-0.264319,0.171374
-1.64712,-0.210807,0.308685,-0.0839899,-0.15712,0.190284
-0.684935,0.80259,1.57881,0.055898,-0.0356182,0.128498
-0.120987,0.931934,2.0305,0.210485,0.173023,-0.0815321
-0.92623,-0.0368019,0.432311,0.0591367,0.329252,-0.151382
-0.284247,-0.320117,-0.748629,-0.0178192,0.23391,0.0229765
-1.52443,-0.457638,-0.543048,-0.197622,0.00833055,-0.202125
-1.19919,-0.694199,-0.495227,-0.11369,-0.0584816,-0.0632799
-0.464811,0.156749,-0.176171,-0.14164,-0.10214,-0.137352
0.916408,0.369574,0.291113,-0.0783331,0.0321771,-0.0758423
0.585809,0.209085,0.277889,0.263662,0.16708,-0.052341
0.577885,-0.256944,-0.471231,0.111467,0.102153,-0.0772817
0.924802,-0.815965,-0.81153,-0.105325,-0.0546636,0.00638801
-0.33985,-0.911945,-0.648027,-0.0245139,-0.079977,0.218641
-0.602873,-0.401965,-0.25962,-0.0123262,-0.11864,0.326046
0.277161,0.155012,0.32691,-0.118834,-0.17227,0.152034
-0.911617,0.340995,0.756537,-0.0251526,-0.152812,0.226146
-1.09994,1.12856,1.83505,0.36035,0.0807134,0.245638
-0.419193,0.680241,0.581899,-0.233605,0.336838,-0.303558
-1.48596,-0.567288,-0.591749,0.0231184,0.0256413,0.0544809
-1.03289,-0.264323,-0.30853,-0.155827,0.21877,-0.175997
0.420809,0.209319,-0.179042,-0.161769,0.0939557,-0.0905201
0.602227,0.2028,-0.154485,0.0255652,0.0588959,-0.0352669
0.755956,0.350677,-0.288877,0.201489,0.098273,0.049667
2.25891,0.137711,-0.150642,3.42727e-05,0.169732,-0.0282242
2.33863,-0.398801,-0.276618,0.127407,-0.0283389,0.119857
0.435926,-0.576203,-0.411504,-0.0992564,-0.0129396,0.166843
-0.161403,-0.538484,-0.479332,-0.189414,-0.0522265,0.30769
-1.27344,-0.161009,0.142626,-0.0388461,-0.147509,0.325027
-1.43123,0.502075,0.897179,0.133774,-0.0350842,0.253748
-0.742641,0.880364,1.50528,0.392459,0.104933,0.087543
-0.181325,0.414075,0.0933978,-0.17334,0.188663,-0.204265
-0.518014,-0.408405,-0.307909,-0.00894541,0.082717,-0.0615647
-0.630387,-0.0676565,-0.452995,-0.178499,0.134578,-0.0423215
0.421743,0.152907,-0.159689,-0.119347,0.0213126,-0.0695258
0.439393,0.168839,-0.0909844,0.000475943,-0.0145275,-0.0895761
0.246952,0.0699863,-0.0855691,0.0676525,0.0284932,0.011038
0.47331,0.130375,0.392338,0.355572,0.120173,-0.0802778
1.5789,-0.287607,-0.0219445,-0.133385,0.135574,-0.0194349
0.849891,-0.877706,-0.57033,0.0494062,0.0898248,0.101826
-0.252588,-1.05763,-1.43064,-0.0447443,-0.0796712,0.293724
0.12463,-0.463105,-0.539342,-0.10658,-0.19117,0.27101
-0.12696,0.419261,0.4784,-0.00770473,-0.251694,0.297873
-0.636698,1.11764,1.5887,0.298831,-0.143324,0.198171
-0.707171,1.06777,1.19714,-0.21349,0.174093,-0.221129
-0.302268,-0.115892,-0.0787585,0.0537821,0.0115886,0.0478471
-2.17377,-0.266677,-0.304321,-0.146037,0.192801,-0.0828916
0.0722332,0.446904,0.0405662,-0.162849,0.181952,-0.0257432
0.357613,0.432906,-0.15534,-0.0490085,0.0396018,-0.147952
0.294307,0.266876,-0.0830867,0.241343,0.0499698,-0.12849
1.31467,0.0254877,0.189969,0.0973812,0.200637,-0.233502
2.22136,-0.748974,-0.0934413,0.120777,0.111165,-0.0506976
0.543514,-1.40537,-0.899847,0.0277121,0.0339726,0.138776
-0.587975,-1.40013,-1.4855,-0.0608915,-0.136229,0.382192
-0.510932,-0.589356,-0.347263,-0.0680566,-0.237351,0.366254
-0.839945,0.183461,0.535871,0.0925922,-0.299481,0.347425
-1.07218,1.08913,1.97567,0.338452,-0.205105,0.253691
-0.109298,1.27373,1.60309,-0.0377945,0.151666,-0.119287
-1.17479,-0.0843944,0.00770042,0.153154,-0.0880115,0.038552
-2.19069,-0.293342,-0.0282347,-0.162001,0.17018,-0.0554376
-0.776463,0.483513,0.847872,-0.200835,0.171409,-0.0735603
0.409131,0.672157,0.686591,0.0652516,0.319887,-0.155815
0.824584,0.307991,-0.0225049,0.195075,0.268597,-0.173375
1.96861,-0.323964,-0.472541,0.072051,0.41713,-0.242012
2.64318,-1.24828,-0.984348,0.202413,0.168719,0.0250269
1.00736,-1.66206,-1.59351,0.148868,-0.0419978,0.211278
-0.010829,-1.59855,-1.43701,0.042966,-0.19431,0.391505
0.0253354,-0.745108,-0.53054,-0.0040738,-0.312389,0.471074
-0.444289,0.399209,0.733944,0.117464,-0.322371,0.455616
-1.32091,1.32456,1.95442,0.203354,-0.213778,0.238505
-0.677862,1.27945,1.68337,-0.0139531,0.0520803,0.0207763
-0.866673,0.539031,0.472047,0.0936965,0.0770731,-0.0567952
-1.63964,0.239554,-0.0364348,-0.174702,0.174136,-0.0973054
-0.973927,0.289081,-0.00217998,-0.122137,0.165998,-0.175965
-0.40404,0.233368,-0.204449,0.0287867,0.14823,-0.206552
-0.374059,0.145034,-0.374273,0.260468,0.110441,-0.183957
0.973259,-0.112583,-0.0321862,0.183375,0.20318,-0.199685
1.27254,-0.850311,-0.660853,0.0398642,0.0573949,-0.0622419
1.19177,-1.17487,-0.868107,0.0722174,-0.0203249,0.156908
0.655528,-1.07227,-0.889264,0.00393307,-0.143528,0.387111
0.090768,-0.340719,-0.311777,-0.117059,-0.18638,0.440212
-0.503291,0.644071,0.768368,-0.0529466,-0.201682,0.401863
-0.834081,1.42643,1.82064,0.252527,-0.0773752,0.232847
-1.1784,1.48956,1.54686,0.0106215,0.241452,-0.128086
1.31076,0.561983,0.202249,0.0452262,0.236313,-0.36829
-1.95356,-0.857421,-1.03789,-0.0349322,0.00779957,-0.259491
-0.29933,-0.727741,-0.921839,-0.0982522,0.111212,-0.109788
0.294849,-0.141788,-0.406023,-0.202969,-0.0902835,-0.0338282
0.262912,0.174239,0.136151,0.00921851,-0.0384532,0.00184417
0.608209,0.498583,0.382795,0.308653,0.0691063,-0.0396503
1.07593,-0.0285321,-0.13817,-0.0467077,0.0733092,-0.0657339
0.936519,-0.581915,-0.299816,0.0363013,0.0109802,0.0281419
0.624493,-0.680618,-0.544165,-0.0854659,-0.0154827,0.1673
0.581426,-0.483728,-0.270741,-0.0904225,-0.0738642,0.272238
-0.399964,-0.0541321,0.157785,0.0456188,-0.0962254,0.304806
-1.32544,0.107235,0.33237,0.158771,-0.119654,0.234048
-2.04628,0.293989,0.583141,-0.0175328,-0.0400115,0.0519464
0.163358,0.454198,0.42599,-0.118255,-0.0211234,-0.140399
-1.39237,-0.0896198,0.23651,-0.0206364,-0.0928984,-0.0662691
-0.66062,0.0961271,0.251051,-0.112507,0.100738,-0.0442684
-0.115384,0.373532,0.3062,-0.114928,0.0540844,-0.134987
0.452913,0.414593,0.453936,0.00621593,0.124782,-0.198263
0.572503,0.186798,0.10432,0.316665,0.282638,-0.122358
1.04001,-0.544574,-0.893989,-0.0784253,0.144284,-0.171275
1.14394,-0.958683,-1.07228,0.185356,-0.00101443,0.0921127
0.462709,-0.885801,-1.08222,0.127786,-0.11727,0.208519
-0.0330021,-0.869421,-1.24846,-0.00543785,-0.289896,0.292686
-0.45037,-0.477591,-0.46231,-0.0547909,-0.442172,0.275404
-1.24703,0.114439,1.10632,0.031606,-0.443863,0.225237
-1.83825,0.923437,2.76057,0.391468,-0.206658,0.133786
-0.28771,0.80331,1.85423,0.165893,0.353133,-0.161857
-1.45927,-0.299157,-0.170903,0.0779147,0.0275492,0.00835288
-2.46282,-0.157882,-0.284132,-0.199852,0.210561,-0.00855875
-0.513702,0.511108,0.432178,-0.178979,0.142114,-0.134779
-0.231749,0.482235,0.151665,0.0741746,0.176962,-0.211333
0.691536,0.361319,-0.024056,0.196704,0.195187,-0.284006
1.70078,-0.559005,-0.483901,0.0875333,0.154584,-0.36252
0.352342,-1.49557,-1.43085,0.0989399,-0.0751776,0.0574837
0.32182,-1.31679,-1.11443,0.189424,-0.0941619,0.201335
-0.20337,-0.72989,-1.1017,-0.057407,-0.296848,0.349062
0.399381,-0.0972375,-0.0654561,-0.117412,-0.411305,0.186945
-0.371279,0.722592,1.37367,0.0500895,-0.399812,0.122316
-1.29686,0.753953,2.08802,0.204708,-0.040809,0.098816
-1.76714,0.340572,0.771492,0.0432976,0.129693,0.0753136
-0.728244,0.414445,0.275667,0.0274003,0.176408,0.0248131
-1.66415,0.414106,0.118371,-0.205058,0.0828412,-0.1318
-1.49948,0.342701,-0.00710431,-0.0435027,0.15368,-0.19784
0.104528,0.178654,-0.0230428,-0.162356,0.137517,-0.362086
-0.813052,-0.236756,-0.445239,0.0980785,0.0447913,-0.297043
1.43963,-0.0683121,0.34888,0.280837,0.249924,-0.2547
1.36107,-0.80993,-0.651327,-0.0658706,0.0120759,-0.0835969
0.332427,-1.38711,-0.880827,0.0553795,-0.0256875,0.124747
-0.917351,-0.987988,-1.25729,-0.0135535,-0.167621,0.325551
0.430383,-0.0110481,-0.0394965,-0.214985,-0.193354,0.218709
0.27972,0.567867,0.973258,0.0190198,-0.174179,0.21248
-1.22098,0.788241,1.03206,0.327761,-0.123423,0.213914
-0.00923472,1.2236,1.75954,-0.0513887,0.205909,-0.302199
0.500245,0.422083,0.166443,0.170823,0.0765834,-0.0270782
-1.51053,-0.269167,-0.752915,-0.106654,0.178637,-0.294164
0.515495,-0.345237,-0.494329,-0.220178,0.0361353,-0.175388
0.308081,-0.318466,-0.517047,-0.113429,-0.0467935,0.015372
0.696077,0.0282373,-0.426271,0.0952686,-0.0627442,-0.0965241
-0.622016,0.1004,0.074813,0.245035,-0.0367512,-0.021689
0.221657,0.155135,0.050051,-0.145903,0.0300099,-0.0358678
1.76843,-0.0536721,0.444678,0.00157112,-0.00960854,-0.0594254
-0.391307,-0.572357,-0.517223,-0.0660238,-0.00932649,0.108046
-0.342702,-0.438326,-0.317657,-0.0468378,-0.0614021,0.146656
-0.693132,-0.0592441,0.169456,0.0238936,-0.102447,0.170495
-0.53705,0.369456,0.817516,0.162508,-0.054886,0.0746896
-0.115883,0.341488,0.770929,-0.104395,0.0614484,-0.158831
0.327602,-0.00144389,0.171335,-0.0293386,0.0366362,-0.112134
-0.815043,-0.336868,-0.244941,-0.140638,0.0564689,-0.0992432
-0.219315,-0.0807925,-0.155999,-0.127002,0.0383223,-0.0485365
0.109878,0.178653,-0.0176235,-0.147937,0.00588563,-0.0700589
0.408264,0.526446,0.265948,-0.0200615,0.0643576,-0.0671539
1.83877,0.654142,0.47476,0.202222,0.270734,-0.126595
4.78545,0.0911155,0.0172393,0.0314959,0.164553,0.0221748
1.97502,-0.595513,-0.0246272,-0.0149863,-0.0230826,-0.0516272
-0.767431,-1.04577,-0.489961,-0.0832354,0.0588821,0.152372
-0.64036,-0.824492,-0.357045,0.0809976,0.0425475,0.270259
-1.2687,-0.490869,-0.279903,0.136823,-0.0720768,0.290909
-1.70716,-0.114872,0.0423974,0.0312023,-0.148545,0.165634
0.204362,0.765021,0.30087,-0.306344,-0.0425048,0.164663
0.715361,0.726183,0.86883,-0.0441224,-0.207623,0.0487134
-0.906754,0.596525,0.576479,-0.114696,0.0481781,-0.111292
0.533342,0.592268,0.604582,-0.0788969,0.145981,-0.173182
1.34551,0.459732,0.405129,0.0555046,0.303962,-0.154993
3.36907,0.139052,-0.215142,0.29654,0.265577,-0.0949351
2.36972,-0.614749,-0.851009,-0.0546743,0.0414934,-0.0708678
1.74963,-0.856161,0.0448121,0.110531,-0.0165294,-0.0101279
-0.45471,-1.25141,-0.59328,-0.0484112,0.0179548,0.268405
-0.154046,-0.802423,-0.640651,-0.0402946,0.0100177,0.43791
0.452302,0.163444,0.226122,-0.00896186,-0.0550646,0.391626
-0.790489,0.598613,0.419334,0.0763777,-0.0683258,0.353467
-1.97393,0.876187,0.640137,-0.0130244,0.00631976,0.0533496
-0.271676,0.297026,0.264901,0.00709742,0.206914,-0.235979
-0.430514,0.0109269,-0.236645,0.0943989,-0.00249104,-0.363166
0.662908,-0.0399814,0.0638202,-0.138491,-0.0299446,-0.131129
0.776783,0.0748225,0.331598,-0.145958,0.0559779,-0.0165632
1.16848,0.0681801,0.205415,0.0422893,0.176358,0.0635005
0.538353,0.127387,-0.554493,0.0978672,0.0826216,0.110808
2.36513,0.123846,-0.276817,-0.212139,0.166273,0.102718
3.8444,0.206747,0.133887,0.161549,0.00333378,0.076676
0.828999,-0.402867,-0.790513,-0.0600474,-0.0800062,0.131859
-0.197318,-0.497837,-1.08257,-0.0152422,-0.107925,0.189782
-0.0306644,-0.0969077,-0.0981609,-0.0528895,-0.19942,0.155034
-0.461791,0.359817,0.860146,0.0613655,-0.167703,0.0978422
-0.53378,0.481091,1.32175,0.247525,-0.000504225,0.00440186
-0.113193,0.194677,0.424189,-0.319963,0.133199,-0.01355
1.73173,0.139012,0.523317,0.030555,0.195759,-0.0107483
-0.126371,0.140553,-0.172294,-0.0970937,0.167565,0.0392777
-0.520813,0.0844391,-0.191688,-0.0690286,0.123107,-0.0477265
1.41145,0.26711,0.0120347,-0.145908,0.199171,-0.150101
1.92333,-0.048319,-0.0985606,0.0646109,0.129394,-0.0156299
1.99917,-0.29847,-0.295532,0.117039,0.286077,0.0122658
3.0765,-0.493024,-0.200695,0.155449,0.170707,0.220071
1.47226,-0.595054,-0.342964,-0.118267,0.164963,0.186963
1.00725,-0.778845,-0.427287,-0.0317329,0.160608,0.32274
-0.715076,-0.617871,-0.574376,0.113137,0.0562572,0.363311
-3.78248,-0.493193,-0.628532,0.186222,-0.180165,0.402379
-1.08148,0.630817,0.219,-0.25092,-0.0510364,0.0567416
0.684346,0.659215,0.635141,0.0932438,-0.142672,0.0162134
0.31245,0.297673,0.246901,-0.0656434,-0.0594673,-0.0532484
-0.383389,0.176839,0.204864,-0.0966622,-0.00847676,-0.0217719
0.13809,0.317988,0.373384,-0.0741032,0.110914,-0.00212252
0.248918,0.411642,0.106861,0.0592575,0.203485,-0.0108416
0.695282,0.0697472,-0.354565,0.0870623,0.207613,-0.0619622
1.88403,-0.0897814,-0.1632,0.0580185,0.124712,0.0639465
0.95305,-0.556219,-0.849978,0.0147517,0.00696072,0.105094
0.718399,-0.935914,-1.43474,-0.0387156,-0.121756,0.267173
0.137877,-0.470541,-0.564858,-0.0270705,-0.261353,0.332713
-0.576313,0.301364,0.855702,0.0337457,-0.232377,0.316023
-1.06667,0.684746,1.59071,0.267095,-0.0721087,0.321371
0.358011,1.11173,1.08605,-0.266081,0.321398,-0.139174
1.10799,0.415291,0.0619985,0.0165042,0.123014,-0.115469
-0.537506,0.0291369,-0.348151,0.0527362,0.160315,-0.0693803
1.61706,0.111497,0.21903,-0.0754548,0.194118,-0.0375955
2.22026,0.0269018,0.454012,-0.0925652,0.249763,-0.00699389
2.31765,-0.337035,-0.241557,0.037594,0.328578,0.124479
2.36417,-0.24752,-0.770054,0.29765,0.21239,0.244779
3.58504,0.0016066,-0.276785,0.0288365,0.182097,0.311878
3.15079,-0.300406,-0.188256,0.0418581,0.215598,0.226854
0.727467,-0.847608,-1.27625,-0.0831694,0.115225,0.378721
0.0783229,-0.396886,-1.18555,-0.00987458,-0.00996958,0.398734
-1.05987,0.187066,-0.357435,0.0819645,-0.168335,0.354252
-1.522,0.718395,0.352046,0.225943,-0.228277,0.148682
-0.804461,0.933758,1.10304,-0.239479,-0.0997196,-0.12466
0.50915,0.518697,1.16758,0.24362,0.0608299,-0.116633
-0.166509,0.0372479,0.160351,-0.104282,0.103236,-0.0960088
-0.0621532,0.0562475,0.520215,-0.176948,0.18648,-0.0858548
0.176322,0.274334,0.34068,-0.0452379,0.320804,-0.0595867
1.34588,0.138397,-0.117059,0.275328,0.357675,-0.0958021
1.02463,-0.33592,-0.891147,0.0669572,0.226236,-0.0948982
3.79704,-0.344401,-0.661639,0.0120905,0.130679,0.0710126
-0.0758344,-0.730081,-0.681586,-0.106129,-0.0786169,0.152335
0.979599,-0.45842,-0.398997,-0.0567371,0.00415325,0.248082
-1.28746,-0.429092,-0.352979,-0.0603563,-0.148924,0.347584
-0.489489,0.278052,0.206789,0.0923547,-0.0922197,0.30168
-0.264772,0.777972,1.00652,0.083923,-0.108051,0.00681889
-0.449863,0.602602,0.522776,-0.0323083,0.000257671,-0.155705
-0.797915,-0.326223,-0.229745,-0.0267363,-0.0877519,-0.042976
-1.08026,-0.24097,0.186685,-0.189701,-0.0462278,-0.075012
-0.921976,0.292045,0.820743,-0.0998287,0.0795843,-0.0490255
0.446916,0.487963,0.813569,0.16489,0.345165,-0.0957752
0.5512,-0.00362836,-0.219072,0.139671,0.279264,-0.135239
2.36881,-0.170953,-0.497046,-0.155443,0.311393,0.0150072
4.41525,-0.254462,-0.328156,-0.000775695,0.0990654,0.114455
0.627684,-0.684834,-0.642606,-0.0935034,-0.105585,0.127891
-1.19096,-0.615472,-0.256412,-0.0362923,0.00751442,0.217631
-1.56018,-0.295858,-0.2427,0.0896918,-0.0370227,0.254129
-1.24997,0.0572411,0.047417,0.261135,-0.113169,0.152483
-1.00137,0.296563,0.0360741,-0.207201,-0.131218,-0.0372674
-0.306707,0.168245,0.318177,-0.0236022,-0.156898,-0.0414896
-0.323019,0.360854,0.61868,-0.136786,-0.0726384,-0.114691
-0.361113,0.421546,0.636383,-0.0736649,0.056348,-0.156179
0.0317176,0.346805,0.408565,0.0447877,0.200985,-0.172902
2.11274,0.40705,0.25434,0.352202,0.392524,-0.0823241
6.42649,-0.0345844,-0.132132,-0.177233,0.282443,-0.0308805
1.68294,-0.660145,-0.319095,0.1398,-0.252503,-0.0394623
-2.65311,-1.01773,-0.618414,-0.0858013,-0.0913964,0.144331
-1.89294,-0.978824,-0.929984,-0.10661,-0.124934,0.211138
-0.968604,-0.308029,-0.143906,-0.00213671,-0.245823,0.212816
-1.01451,0.53576,1.27022,0.125003,-0.225064,0.124517
-0.801463,0.748354,1.86883,0.0528951,0.124366,-0.119741
0.938667,0.174803,0.248771,0.0998529,0.154827,-0.000518918
-0.88105,-0.269695,-0.454532,-0.208329,0.0278039,-0.165657
-3.11458,-0.175393,-0.623398,-0.241708,0.0542697,-0.0849324
-3.40589,0.0131978,-0.49733,0.0123788,0.0975851,-0.164409
-0.813483,0.0271832,-0.222784,0.188961,0.150084,-0.216909
0.653617,-0.0230081,0.330311,0.392522,0.178936,-0.192791
2.87042,-0.391777,-0.0478618,-0.0934122,0.112599,-0.0818574
0.92484,-1.05661,-0.378676,-0.0323151,-0.158991,0.0440777
-0.643764,-1.00531,-0.841924,-0.114612,-0.11849,0.218206
-0.539059,-0.540366,-0.248015,-0.121936,-0.226851,0.28664
-0.828585,0.296226,0.886051,0.114803,-0.202632,0.229735
-1.37046,0.659425,1.58622,0.228321,-0.0904734,0.147696
-0.702817,0.66871,0.818576,-0.1097,0.218662,-0.129794
-0.188078,0.0340829,0.15477,-0.0262645,0.0663438,-0.107979
-1.02644,0.17414,0.169758,-0.179639,0.154618,-0.163814
0.357826,0.378543,0.243056,-0.104245,0.204469,-0.206342
0.521275,-0.0121346,-0.148728,0.0926653,0.133733,-0.20225
0.399887,-0.286635,-0.302941,0.353908,0.178275,-0.185792
1.46896,-0.684383,-0.639493,-0.0222204,0.0706007,-0.0460382
1.03078,-0.959803,-0.487868,0.0416251,-0.004719,0.0561216
0.208091,-1.1336,-1.11481,-0.0800359,-0.0903025,0.245006
-0.523476,-0.851043,-0.881401,-0.0206085,-0.234238,0.357473
-1.14861,-0.0695691,0.294955,0.125859,-0.342657,0.278669
-1.62014,0.693649,1.67437,0.236167,-0.260693,0.214412
-0.739245,1.16136,1.66997,-0.0147521,0.0320036,-0.109585
-0.505282,0.430111,0.875659,-0.000573814,0.0886747,-0.0649701
-1.61619,0.228849,0.203705,-0.0814434,0.246293,-0.136137
-0.435498,0.367404,0.309035,-0.0652131,0.270661,-0.235603
0.145631,0.0424435,-0.218357,0.10161,0.283305,-0.221056
1.05527,-0.218964,-0.419789,0.236101,0.28223,-0.259777
1.96951,-0.681617,-0.420755,0.0913299,0.0864098,-0.0553522
0.779818,-1.15106,-1.08262,0.00597048,0.0343926,0.0807023
0.204859,-1.3272,-1.61468,0.0612484,-0.155052,0.2928
-0.670056,-0.88278,-1.2353,0.0031752,-0.330143,0.327504
-0.513293,-0.0519218,0.240039,0.070438,-0.454032,0.256894
-1.71581,0.693601,2.13798,0.159704,-0.382339,0.129497
-0.980637,0.933655,2.02615,0.163642,1.82092e-05,-0.0828462
-0.764783,0.180174,0.793732,-0.072938,0.0625357,-0.0220681
-2.18012,-0.00282742,0.380647,-0.0248483,0.171007,0.0118484
-1.09241,0.623221,0.851689,-0.139601,0.305588,-0.12216
0.975088,0.679233,0.646994,0.34296,0.608444,-0.213952
0.766168,-0.313339,-0.995802,0.0583997,0.332313,-0.313359
1.10028,-0.947916,-1.3458,0.0577306,0.11297,-0.107565
1.44208,-1.127,-1.33639,0.0951861,-0.0125615,0.0500928
0.749883,-1.22227,-1.41909,0.136749,-0.201243,0.295204
-0.172917,-0.928969,-0.996192,0.111972,-0.372789,0.336636
-1.06077,-0.162263,0.383842,0.202165,-0.469205,0.354769
-1.72799,0.589393,1.76106,-0.268111,-0.329025,0.0840845
-0.841467,0.821803,1.96467,0.291951,-0.093839,0.0717984
-1.53173,0.548997,0.989191,0.0282558,0.0853067,-0.0762403
-1.86113,0.108731,0.267436,-0.0596525,0.119565,-0.0715139
-1.20635,0.361508,0.604389,0.0545939,0.270166,-0.151571
0.0155801,0.101031,0.0103225,0.0112134,0.374273,-0.273489
0.00263772,-0.614053,-0.855321,-0.0181025,0.125996,-0.148848
-0.528632,-1.12766,-1.39619,0.153957,-0.0168162,-0.0727887
-0.489505,-1.38628,-1.70065,0.116256,-0.267786,0.0768666
-0.943149,-1.64801,-0.898205,0.146725,-0.471919,0.184901
-1.88806,-1.16974,0.588555,0.235784,-0.508255,0.305626
-1.94501,-0.492948,1.52304,-0.0922467,-0.413706,0.200628
-2.94131,-0.259262,2.15609,0.190921,-0.199497,0.344481
-2.21239,0.196957,1.79344,0.0808971,0.077179,0.180214
-1.61051,0.123241,1.11828,0.235984,0.101274,0.118766
-3.01422,-0.228956,0.436738,-0.184221,0.217365,0.10524
-1.97206,-0.139301,0.662601,0.0504583,0.379254,0.155074
-1.24471,0.0796481,-0.147407,-0.105507,0.260127,0.0213757
-1.53484,-0.0148044,-0.418278,-0.0283628,0.135006,0.00179487
-1.75331,-0.0519792,-0.100569,0.0464041,0.057668,-0.0660223
-1.72955,-0.207413,-0.0830147,-0.0707093,0.0447196,-0.188988
-0.20592,-0.47136,-0.469154,0.0899333,-0.0487999,-0.16466
-1.33915,-0.809031,-0.44097,-0.12923,-0.180256,-0.0339729
-1.16443,-0.260084,0.274629,-0.2162,-0.102356,0.055832
-0.123642,0.795965,1.05522,-0.0832173,0.0111099,-0.0974441
0.988691,0.586555,0.906362,0.259346,0.166191,-0.107094
1.43394,-0.11611,0.0694409,0.186864,0.189979,-0.0638913
-0.612745,-0.82006,-1.03447,-0.0906658,0.122695,0.0489012
0.396306,-0.728217,-0.952468,-0.0441915,0.0718993,0.128031
-0.211787,-0.722484,-0.814818,0.119078,-0.129009,0.203492
-0.407845,-0.124258,-0.220165,0.133907,-0.182875,0.256102
3.11491,0.318148,-0.436596,0.0354137,0.033203,0.115872
0.831984,0.495549,-0.749584,0.0240687,-0.0859382,0.033152
0.466757,0.497873,-0.465702,-0.135942,-0.125719,0.149431
