rotation_x,rotation_y,rotation_z,acceleration_x,acceleration_y,acceleration_z
-0.123578,0.0986679,0.335971,-0.0921348,0.473406,0.0578671
-0.234107,0.201944,-0.516665,-0.0180921,0.401873,-0.0802042
-0.556218,-0.0426677,-1.26206,0.395309,0.25877,-0.0723916
1.19487,-0.121558,-2.24758,0.0409584,0.0407053,-0.141356
-0.17419,-0.741018,-2.17176,0.217652,-0.38843,0.0260229
-0.544347,-0.684969,-0.822994,0.0379647,-0.397057,-0.0415754
-0.248301,-0.216461,0.888869,-0.0424057,-0.416114,0.0348181
-0.248789,0.263304,2.18926,0.00816584,-0.196806,0.0143981
0.281925,0.648047,2.52638,0.0502095,0.103471,-0.0573936
0.862034,0.628788,1.53823,0.0685098,0.42632,-0.187585
0.851383,0.386752,-0.042614,0.0594084,0.443531,-0.234213
0.276499,-0.282687,-1.32577,0.0732523,0.277072,-0.0970283
0.35967,-0.404666,-2.01702,-0.0102184,0.0418577,0.0458182
0.934054,-0.370723,-1.29496,0.216906,0.0224789,0.187249
0.47973,-0.226316,-1.37773,0.0160634,-0.174321,0.303824
0.315248,0.0349175,-1.11079,0.0339088,-0.287441,0.247165
-0.169933,0.255235,0.0537806,-0.00409418,-0.325439,0.155244
0.181954,0.627838,1.31238,0.101651,-0.204004,0.00351775
1.48475,0.98077,2.11738,0.358797,-0.0132227,-0.112824
-0.158051,-0.201802,1.36884,-0.00441551,-0.000240773,-0.118132
-2.33969,-0.290518,0.394305,-0.0157579,0.0963076,0.133283
-1.30469,-0.125015,0.802047,-0.14955,0.389969,-0.0813658
2.71418,0.498194,0.351485,-0.11626,0.464371,-0.05713
1.24678,0.281323,-0.908029,-0.0196444,0.235829,-0.0835692
1.39854,0.0393431,-1.16553,0.0262058,0.0946782,0.00134242
0.94356,0.0610448,-1.16951,0.060746,-0.0379294,0.0379098
0.768193,0.168421,-0.927253,0.285527,-0.14635,0.113695
1.01047,0.191408,-0.505526,-0.0413054,-0.203312,0.0984623
0.377698,0.0515704,-0.112731,0.0258734,-0.199899,0.152469
-1.48393,-0.39534,0.0744476,0.070405,-0.113466,0.309418
-0.781384,0.159619,0.0873689,-0.0370475,-0.101418,0.142631
0.468874,0.338404,0.853764,0.00199413,-0.0451732,0.038753
-0.0732312,0.148773,0.91066,0.0908078,-0.0291628,-0.0161101
-0.208761,-0.0498412,0.893275,0.104492,0.0751647,-0.101132
-0.244907,-0.39094,1.29388,0.185186,0.197359,-0.0673451
-0.929615,-0.86273,-0.0198132,-0.291208,0.282565,-0.00071162
-1.66792,-0.456026,-1.11076,0.0698053,0.124612,0.133746
-0.353656,0.196143,-1.44235,-0.111568,0.0421566,-0.074622
1.59028,0.42065,-0.496294,-0.0442254,-0.119337,-0.0757898
0.617417,0.356086,0.0347065,-0.0409645,-0.247986,-0.0904202
-0.319266,0.37372,0.550351,0.0436705,-0.14107,-0.137504
-0.20433,0.294736,1.24685,0.288818,0.00297803,-0.101184
-0.120267,-0.230702,0.740923,-0.0766793,0.226913,-0.0447692
0.924779,-0.0625392,-0.379192,-0.0552537,0.107573,0.0849619
-0.766282,-0.585874,-1.06167,0.114353,0.232755,0.303767
-0.839566,0.114215,-2.68838,0.0809311,-0.0707572,0.24144
0.185202,0.465865,-1.51474,0.0718207,-0.221856,0.0740976
0.552166,0.514131,-0.0221244,0.0471575,-0.407956,0.024997
0.520621,0.655304,1.28249,0.0762107,-0.287248,-0.1268
0.469868,0.411365,2.26044,0.158822,-0.176025,-0.0994995
-1.86455,-0.361166,2.34753,0.423382,0.0418256,-0.0348589
-2.78789,-1.07597,1.24072,0.105336,0.380997,-0.00210309
-0.643332,-0.554382,-0.10408,-0.283681,0.38077,0.194332
-1.59355,-0.311335,-0.802635,-0.0454056,0.249169,0.291336
0.679954,0.840343,-0.954378,-0.138396,0.204059,0.00943303
1.92382,0.797114,-0.702629,0.0110587,0.0341142,-0.117686
1.59304,0.395333,-0.923501,0.0608095,-0.106783,-0.235344
0.218305,-0.07025,-0.207631,-0.00900394,-0.159562,-0.0838881
-0.626051,0.0869858,0.767954,0.106715,-0.0991233,0.0397239
-5.01545,-0.415226,0.00365861,-0.0185645,0.203595,0.226731
-3.19067,1.54655,-2.5601,0.0423932,0.144283,0.549004
-3.7379,4.04403,-2.1766,0.493943,0.281494,0.538132
1.08074,4.55259,-1.26116,0.468697,0.0440282,-0.205386
1.26805,2.0651,-0.361787,0.386789,-0.203434,-0.628497
2.51266,-0.459101,0.770426,0.440195,-0.451065,-0.514093
1.19602,-2.161,3.11643,0.448568,-0.541625,-0.138989
-0.113126,-3.37804,4.17719,0.766629,0.179577,0.17419
7.53292,-1.69522,5.26763,0.0287488,0.889487,0.185888
1.3916,0.472635,2.2667,0.341825,-0.13411,0.0773107
-5.58274,-0.0745297,-0.277404,-0.121492,0.458541,0.162435
-0.498988,-0.173055,-0.0547265,-0.329107,0.591349,0.147882
0.260383,0.433363,-0.521658,-0.0940425,0.305244,-0.0798048
0.323887,0.803934,-1.16062,0.143793,0.280145,-0.168898
1.06203,0.431936,-0.990902,0.472485,0.0531899,-0.142605
1.62591,-0.491833,-1.22641,0.00550765,-0.0439462,-0.148383
0.0697102,-0.847234,-1.11026,0.248031,-0.280738,0.0795938
-0.883594,-0.98326,-0.509277,0.0325901,-0.28766,0.216256
-1.04055,-0.499858,-0.250163,-0.0270997,-0.331879,0.26353
-0.238255,-0.108462,0.955515,-0.00189644,-0.251191,0.23116
-0.549678,0.0110412,1.96433,0.246022,-0.0965779,0.194063
-0.633486,0.219035,2.36333,0.591736,0.250331,0.018863
-0.768813,0.0259086,0.597932,-0.439739,0.261665,-0.14462
-1.56546,-0.582214,-0.535798,0.113213,0.245642,-0.0742425
-1.11645,-0.107462,-0.684642,-0.208896,0.275928,-0.0743862
0.28593,0.0587663,-0.313992,-0.171086,0.120162,-0.105605
0.461064,0.116422,-0.253876,-0.130892,0.0198724,-0.0339621
0.0882133,0.306392,0.0982208,-0.0123995,0.0925293,-0.0340439
0.528103,0.193423,0.437162,0.543099,0.287596,-0.0179565
1.93641,0.531553,-1.06734,-0.159918,0.0404547,-0.0418542
1.10882,-0.34063,-1.115,0.200096,-0.078312,0.113183
0.212885,-0.331986,-1.44642,0.0485834,-0.216495,0.180094
-0.2129,-0.1425,-1.39369,0.0926474,-0.385391,0.185833
-0.525831,-0.0488905,0.0779228,0.0963029,-0.465512,0.158719
-0.809582,0.099463,2.32605,0.261352,-0.29712,0.0467538
-0.702128,-0.453419,3.23929,0.192344,0.20749,-0.185596
-1.45805,-0.447425,0.843095,0.292951,0.0455534,0.118663
-3.57187,-0.734199,-0.35321,-0.232341,0.218618,0.135319
-1.24832,-0.00564427,0.0621176,-0.298659,0.30569,0.0766962
-0.099761,0.591438,0.532662,-0.183717,0.197764,-0.0215721
1.29566,0.966218,0.433955,0.128886,0.401898,-0.251091
1.15518,0.00722883,-0.699318,0.239105,0.365349,-0.207363
1.80557,0.0385463,-2.05615,0.211933,0.167522,-0.0435116
-0.238829,-1.09777,-2.7926,0.386606,-0.190646,0.0819297
-0.402621,-0.779281,-2.77177,0.245173,-0.445015,0.110251
0.0558295,-0.527265,-0.787581,0.0967045,-0.642015,0.0670603
-0.30062,-0.257616,1.76507,0.165574,-0.579245,0.128981
-0.924372,0.0711534,3.80133,0.436468,-0.231629,0.121885
-1.86191,-0.531104,3.51645,0.352506,0.244999,0.0197579
-2.68007,-0.71548,0.351978,0.151236,0.392003,0.127089
-5.58503,-0.870353,-2.72648,-0.0481055,0.454467,0.240653
-0.218977,0.132039,-2.61245,-0.346918,0.340251,0.0863271
1.11302,0.908597,-2.66272,-0.11654,0.304465,-0.0709143
0.505082,1.48531,-2.99354,0.0475196,0.0946536,-0.164934
-0.111828,1.70402,-1.58478,0.234034,0.0141087,-0.113311
-0.422636,0.801409,-1.09395,0.273473,-0.133631,-0.364099
1.45553,0.925345,-0.26822,0.118606,0.217392,0.230371
0.228472,-0.153573,-0.81607,0.144918,-0.140364,0.0797713
-0.0596209,-0.986988,-0.452749,0.171566,-0.243696,0.00891638
-0.37848,-1.22193,0.0572361,-0.0531213,-0.0790812,-0.0547683
0.727462,-0.974685,0.204012,-0.103792,0.240294,-0.134483
1.09968,-1.18771,0.105285,0.0253951,0.28764,-0.00222731
1.66576,-1.01779,-0.217439,0.143623,-0.301678,0.104253
-0.103615,-1.19803,0.405354,0.246288,-0.125686,0.0523376
-0.532066,-1.28532,0.39363,0.0355648,-0.134254,-0.0762157
-0.9316,-0.756327,0.35131,-0.086339,-0.159977,-0.164698
-0.286221,-0.119155,-0.293613,-0.177394,0.181746,-0.147182
-0.0259295,0.153087,-0.266622,-0.075534,0.528639,-0.146444
0.829742,0.299227,-0.624434,0.13505,-0.121583,0.00746262
0.991096,-0.0696778,-0.157732,0.183728,-0.0128005,0.12813
0.181705,-0.94581,-0.0129784,0.300832,-0.135006,0.154722
-0.0949772,-1.25536,0.607693,0.086127,-0.142729,0.112973
0.0217871,-1.56958,0.562089,-0.105813,0.065416,0.00568193
0.463598,-1.47849,0.313135,-0.172305,0.113021,-0.130511
0.42258,-1.13119,0.371631,-0.0836357,0.198887,-0.0263157
0.798693,-1.02209,0.00371794,0.0583342,0.0629537,0.00344461
1.14208,-1.09244,0.237313,0.177406,-0.166649,0.0634487
0.580147,-1.06192,0.343993,0.0837508,0.0397185,-0.182604
-0.0241791,-1.13904,-0.0360009,-0.0187409,-0.110559,-0.112602
0.0576783,-0.786704,-0.0988802,0.0086138,-0.143994,-0.0847905
-1.34243,-0.537113,-0.304472,-0.147712,0.0505013,-0.0627072
-0.288065,-0.145771,-0.243229,-0.19538,0.261061,-0.119979
0.897568,0.621928,-0.536523,0.0306118,-0.0520908,0.0373319
0.976367,0.645662,-0.368635,0.0641581,0.0327122,0.0872736
0.0503563,-0.332742,-0.116811,0.229298,-0.00691044,0.206083
-0.309054,-0.584001,0.206144,0.0182888,-0.0631455,-0.0268784
-0.00821695,-0.418577,0.252142,-0.116767,-0.0635471,-0.125163
-0.0345724,-0.107675,0.271396,-0.138834,-0.0995057,-0.0088284
-0.438245,-0.212304,0.128459,-0.13366,0.138426,-0.0375003
0.14248,-0.491049,-0.198778,-0.00178376,0.204121,-0.0401732
-0.488376,-0.323669,-0.0483697,0.134046,-0.188708,-0.0465147
-0.262341,-0.285036,0.150958,0.0823203,0.0287367,0.111149
-0.115492,-0.135677,0.105665,0.0275512,-0.170551,-0.0686898
0.518641,-0.209806,0.138436,0.0551535,0.0743392,-0.109157
-0.0933463,-0.111196,0.0649877,-0.0751865,-0.0962324,-0.0679691
-0.388884,-0.214999,-0.169435,-0.213492,0.219105,-0.16017
-0.40406,0.347482,-0.44132,-0.154588,0.00276285,0.0928705
0.349739,1.0808,-0.426157,-0.0437469,0.115897,0.125805
-0.0453985,0.726555,-0.366576,0.192197,-0.144568,0.296665
-0.511216,0.197282,0.361658,0.168074,-0.248133,-0.0246646
-0.71658,-0.499154,0.29275,-0.0348531,0.0478919,-0.000290632
0.0563159,-0.106893,0.146722,-0.126424,0.0719333,-0.0899206
0.239466,-0.105999,0.127103,-0.209698,0.203196,0.0593809
0.44089,-0.0608359,-0.226093,0.0701746,0.0007146,0.0343978
0.41974,-0.175054,-0.189103,0.15146,-0.119252,0.0530324
-0.611858,-0.881814,0.199463,0.126788,-0.106325,0.115994
-0.134979,-0.308463,0.247747,-0.058084,-0.022881,-0.185723
-0.0174499,0.070386,0.0897347,-0.0524624,-0.0721306,-0.0539373
-0.0597554,0.0659256,-0.0354019,-0.139819,0.0263708,-0.0206816
0.211814,0.158288,-0.244398,-0.230435,0.22267,-0.107589
0.255125,0.875112,-0.193326,-0.0834529,-0.048781,0.104361
0.0147297,1.17402,0.204506,-0.034523,-0.0625699,0.0237878
-0.0790922,0.644014,0.0644187,0.157734,-0.0377815,0.219223
-0.232341,0.090495,0.501223,0.175927,-0.327336,-0.000744462
1.83646,-0.660909,1.74683,0.0695923,-0.276904,-0.0320329
1.60365,-1.08249,4.90275,0.356767,-0.632807,-0.209727
-0.051207,0.0675297,6.38172,0.96338,0.0644619,0.37646
1.8775,2.70652,3.85136,0.346178,0.27863,0.497681
1.38357,2.7951,0.537817,0.32696,0.757871,0.128843
1.14086,3.04732,-1.94246,0.0639037,0.584935,-0.0795687
-0.222219,1.19059,-3.24971,0.492151,-0.0630897,-0.8441
5.38555,3.53479,0.103531,0.46754,-0.229923,-1.37249
0.706285,0.475455,-0.0822005,0.0830399,0.447234,-0.337243
1.51278,0.358715,0.0914599,0.0124956,0.130364,0.361882
0.0955222,0.570149,0.0495246,-0.107708,-0.0843194,0.0932704
0.0713952,-0.051319,0.168855,-0.112152,0.0816614,0.0591308
-0.349871,-0.0596598,0.104295,-0.0419265,-0.0283853,-0.0483195
-0.190598,-0.16461,0.0211642,-0.0628062,-0.0232081,-0.13212
-0.207019,-0.0419006,-0.0630329,0.0140797,-0.066433,-0.0563216
0.494242,-0.252344,-0.374236,0.0803993,0.193222,-0.100426
-0.749672,-0.181182,0.075804,-0.0578198,0.00267458,0.292735
0.856945,-0.399259,0.067209,0.219481,0.144606,-0.0798001
-0.376204,-0.139653,0.16241,0.0565393,-0.0626218,-0.0605252
0.0805867,0.162165,0.0830989,-0.139112,-0.0844105,-0.0968051
0.141419,0.322042,-0.0929361,0.0433176,-0.0641189,-0.132562
0.0404795,0.122789,0.150516,0.061663,0.0959959,-0.206891
0.883442,0.0965618,0.177348,0.0773994,0.321786,0.0910939
-0.430263,0.474905,0.332378,-0.157161,-0.19293,0.136986
0.294785,0.242115,0.0812443,-0.0801383,0.103193,0.087175
-0.775614,0.148308,0.340683,-0.0680864,0.0684977,-0.00586784
-0.209678,0.0234094,0.0209401,-0.151966,0.0220689,-0.174847
-0.0407957,-0.131741,-0.0543484,-0.0283996,0.0409391,0.0081619
0.501978,-0.0812032,0.369391,0.247212,0.13876,-0.146168
-0.456964,-1.50951,0.500072,0.0575035,-0.528633,0.409782
-1.81523,0.715472,2.30333,0.123302,-0.130622,0.119561
-3.10268,0.69468,2.0732,0.216531,-0.0500245,0.10957
-2.54236,-0.196082,1.77443,0.0288311,0.46067,-0.0806853
-0.471438,0.0684339,0.610523,-0.0115987,0.414464,-0.230066
-0.212477,-0.314597,-0.238647,0.113306,0.166753,-0.212564
0.0880245,-1.01242,-0.883683,0.427011,0.389221,-0.27732
-2.24793,-1.61821,-1.95802,-0.211006,0.195427,-0.0661938
-1.36263,-0.910855,-3.29271,0.449243,0.308119,0.121307
-1.80323,-0.339949,-5.03857,0.414877,0.203297,0.139101
0.217327,-0.137955,-4.10597,0.403412,-0.253987,-0.00943029
-0.512354,-0.111045,-2.47308,0.432826,-0.4354,0.0557529
0.317671,-0.0705542,-0.339749,0.4867,-0.548276,0.0516615
0.131695,-0.13916,1.88558,0.314785,-0.363886,-0.103912
0.426725,0.486633,2.52263,0.307715,-0.289823,-0.00948167
0.539717,0.547039,4.12854,0.34125,-0.0466868,-0.00410914
0.323187,0.359294,3.57228,0.198232,0.158806,-0.044508
-0.27144,0.0760242,1.98204,0.0656112,0.479528,-0.172161
-0.466754,-0.163965,0.880224,0.0824398,0.644615,-0.130478
-0.28571,-0.0134036,0.316856,0.351369,0.898368,0.0475578
2.25962,0.670082,-1.73161,-0.309393,0.412805,-0.0416628
6.16113,-0.379523,-2.2348,0.506757,0.234492,0.241135
2.84412,-1.21287,-2.53137,0.296562,-0.156322,0.266135
2.05333,-1.18603,-0.961743,-0.0053497,-0.173254,0.411498
-0.547046,-0.347585,0.298811,-0.192844,-0.251437,0.289501
-2.81847,-0.155955,1.38957,-0.19303,-0.162402,0.130378
-5.29886,-1.48714,0.815154,-0.0465355,-8.36849e-05,-0.189797
-4.20028,-1.74798,-0.0444861,0.12558,-0.374549,0.0334592
0.600459,-0.232184,0.815215,-0.127527,-0.269302,-0.0402249
2.78536,1.09787,0.619246,0.0540566,-0.386925,0.462781
-2.51341,1.04684,1.5154,0.00706315,-0.104119,0.245839
1.11949,1.57757,2.9904,0.136103,0.68306,-0.22794
5.46896,1.93004,1.18804,0.465872,0.732084,-0.636498
-0.682463,-1.05825,-0.544369,-0.13355,-0.0320322,-0.538927
-0.814911,-2.55915,-0.641978,0.258701,0.0894577,-0.103647
-3.59847,-2.48904,-2.68397,0.116731,-0.0568848,0.314035
-1.2302,-1.05029,-2.33719,0.0845276,-0.285336,0.315036
0.335677,-0.0548907,-0.537446,0.132909,-0.574225,0.331792
-0.100364,0.569502,2.03718,0.339426,-0.44356,0.210964
0.0733411,0.52884,3.29245,0.0951166,-0.0372034,-0.019151
0.515879,0.527939,1.74807,0.322007,0.0166813,-0.0825837
-2.3303,-0.257291,1.07151,0.00738299,0.162967,-0.0614326
-1.64799,-0.402503,0.792941,-0.109598,0.451244,-0.0913996
-0.586392,-0.0345973,0.283813,-0.160403,0.409606,-0.00084424
-0.575392,0.308469,-0.223748,0.110281,0.466487,0.0315866
0.973359,0.584975,-0.866151,0.274551,0.434744,-0.107971
2.92731,0.269129,-1.04697,-0.051208,0.232063,-0.074228
2.77717,-0.957596,-0.74362,0.340454,0.0915645,0.211387
-0.322649,-1.12336,-2.19656,0.0406028,-0.211792,0.349417
-0.863984,-0.479256,-2.44209,0.142256,-0.347014,0.390107
-0.210252,0.188921,-0.62441,0.180641,-0.496044,0.308814
-0.335761,0.646915,2.2217,0.495295,-0.396613,0.157863
0.911505,0.970703,2.83115,-0.134026,-0.102073,-0.351133
-2.06933,-0.1876,1.94283,0.231313,-0.138829,0.151273
-3.73759,-0.774021,0.624052,-0.0846477,0.396772,0.0515181
-0.234159,-0.105619,0.749298,-0.195662,0.422312,0.109425
-0.105671,0.530083,0.262719,-0.0853251,0.405258,0.0811949
0.739936,1.05035,-0.564469,0.203759,0.434718,-0.0745201
1.46765,0.360417,-1.39814,0.0654224,0.274659,-0.202907
3.2424,-0.155521,-1.2375,0.170395,0.0644748,-0.0905242
0.230328,-1.48078,-1.09915,0.147618,-0.258146,0.217629
-1.67409,-1.14684,-1.54544,0.039477,-0.316901,0.349579
-0.146338,-0.439895,-0.392515,-0.00103801,-0.344303,0.304311
-0.255664,0.135584,1.22952,0.23086,-0.358076,0.363303
-0.689963,0.399888,2.52435,0.415901,-0.0894752,0.214832
-0.109132,1.20812,1.93898,-0.1053,0.148764,-0.154004
0.976642,0.635109,0.925321,0.0385082,0.26788,-0.159309
-0.992676,0.0339688,0.223083,-0.126604,0.288044,-0.234869
-0.371047,-0.115765,-0.224505,-0.187054,0.392154,-0.239042
-0.269482,-0.156194,-0.698253,0.107418,0.236665,-0.0768639
-0.620313,0.23992,-0.958562,0.293208,0.129619,-0.0141878
1.01777,-0.0103671,-1.04804,-0.17171,0.0854304,-0.106391
1.79823,-0.399575,-0.928265,0.232728,-0.0548216,0.0953158
0.398328,-0.44608,-1.25054,-0.0206805,-0.264395,0.167552
0.0831755,-0.263138,-1.22726,0.0547538,-0.348042,0.257325
-0.251439,0.177935,-0.205661,-0.017045,-0.44019,0.183096
-0.976615,0.287773,1.81669,0.267781,-0.334483,0.109746
-0.453039,-0.152355,2.6378,0.136966,0.11407,-0.225445
-1.27421,-0.360882,0.931899,0.142474,0.0190137,0.135102
-3.75703,-0.617704,0.210545,-0.0649603,0.213585,0.11676
-0.659489,0.0961946,0.520954,-0.298254,0.391325,-0.0476524
0.0135443,0.553143,0.0621471,-0.102817,0.195271,-0.0259755
-0.800014,0.644818,-0.398789,0.350108,0.305626,-0.155465
0.882212,0.0601576,-1.09388,-0.0124891,0.197857,-0.283886
2.5555,-0.868036,-0.936283,0.300452,0.072536,-0.156033
-1.19578,-1.61899,-1.34186,-0.0807364,-0.33991,0.0686222
-2.14828,-0.816156,-1.40298,0.0428798,-0.314272,0.237434
2.18326,-0.306788,0.375012,-0.0922496,-0.203864,0.298964
-1.20349,0.505847,1.81015,0.223415,-0.262353,0.238428
-0.638069,0.815224,2.43424,0.52601,0.177171,-0.0526777
1.41002,0.942739,0.494364,-0.0847253,0.121693,-0.108436
-1.79143,-0.405972,-0.0313484,-0.0659913,-0.142129,0.056052
-2.8072,-0.00950528,0.232594,-0.218114,0.291753,-0.206984
1.29121,0.533922,0.618374,-0.106493,0.338872,-0.0981283
0.655705,0.280966,-0.148444,0.0962614,0.210131,-0.151553
-0.658687,-0.0719214,-0.933181,0.492089,0.22518,-0.145883
0.89121,0.0436454,-1.36939,-0.03207,0.0450612,-0.146516
1.16511,-0.912126,-1.09506,0.133502,-0.126669,0.0657034
-0.872021,-1.04957,-1.77492,0.0804999,-0.319666,0.238688
-0.954654,-0.626561,-1.19887,-0.0316377,-0.430881,0.20914
-0.298981,-0.0774387,0.954015,0.0672776,-0.461968,0.204815
-1.04351,0.324116,3.63363,0.730032,-0.151792,0.164787
2.56562,0.181504,2.44179,-0.433656,0.459049,-0.333268
0.223834,0.34759,0.50126,0.312782,-0.125049,0.132899
-4.78396,-0.784545,0.262274,-0.201447,0.392869,-0.00431639
-1.16044,-0.0585158,-0.204329,-0.216861,0.512993,0.0115927
1.09589,0.639976,-0.515602,-0.025948,0.312131,-0.0778549
-0.763443,0.785561,-0.532054,0.346113,0.1202,0.127938
2.54388,0.508124,-0.15353,-0.0883086,0.355038,-0.149013
4.66945,-0.58127,-0.965488,0.13796,-0.0901162,0.125918
-0.638819,-1.50678,-2.29249,-0.00176501,0.0417264,0.231011
-0.831603,-1.55663,-1.56313,0.070093,-0.325784,0.516695
-3.50002,-1.70407,-0.90225,0.160271,-0.383831,0.444224
-2.90333,-0.759396,0.795894,0.623972,-0.293191,0.0932919
1.70657,0.979463,2.68555,-0.305703,-0.104514,-0.144783
4.69399,1.95714,2.9105,0.190856,0.0523195,0.242788
1.31966,1.37182,2.09392,0.148561,0.15752,-0.305503
0.98022,0.358729,0.479447,0.00819266,0.313294,-0.435582
0.148404,-0.691669,-0.0809974,-0.0786035,0.308321,-0.324761
-0.405263,-1.30833,-0.493632,0.107402,0.353639,0.0141068
-1.8078,-0.981789,-1.29058,0.391161,0.21815,0.405605
1.97516,0.802299,-1.38201,0.117965,0.0623241,0.342502
3.80038,1.06642,-1.04888,-0.029228,-0.103933,0.438861
1.59985,0.526197,-1.22243,-0.0663584,-0.234356,0.394843
0.945103,0.483996,-0.593151,0.112524,-0.25538,0.342129
1.18316,0.706722,-0.182353,0.2125,-0.195387,0.256561
0.380051,0.883684,1.0967,0.432868,-0.234736,0.160002
1.47781,0.828468,1.14925,-0.356704,-0.0449086,-0.267102
-1.86615,-0.0127372,0.623986,0.187392,-0.115894,0.0484847
-0.770341,-0.14511,0.535992,-0.0664391,0.292318,-0.152811
0.426621,0.0966799,0.0463509,-0.206096,0.12718,-0.00406688
-0.307605,0.122975,-0.505752,-0.0995653,0.0907847,0.0734982
-0.568497,0.472779,-0.332704,0.102911,0.090776,0.060961
0.783972,0.545416,0.252059,0.0798391,0.212981,-0.112567
2.74238,0.383864,-0.267376,0.10222,0.126559,-0.120958
-0.0612861,-0.717882,-1.1116,0.0241812,-0.167139,0.0692935
-0.960046,-0.672056,-1.56187,0.0593758,-0.199995,0.120854
-0.259666,-0.550997,-0.446711,0.0426069,-0.297318,0.175611
0.0875321,-0.0855953,0.732207,0.0844064,-0.26529,0.197157
0.502838,0.324949,1.72369,0.258535,-0.0982144,0.138782
0.501945,0.230389,1.40483,-0.100051,0.118161,-0.0710394
0.310815,0.431785,0.428384,0.144801,0.113789,0.041872
-0.411094,0.394474,0.15988,-0.102102,0.241625,-0.134259
1.55034,0.557109,-0.060341,-0.134848,0.448746,-0.199529
1.08151,0.419506,-0.762107,-0.118092,0.294506,0.17282
3.25905,0.876568,-0.505833,0.0359622,0.140876,0.42356
3.04259,1.48226,-0.5875,-0.082285,-0.155816,0.548168
2.17277,1.16365,0.0929814,0.017663,-0.0772644,0.231823
3.30197,0.817302,0.440291,0.0915155,-0.0794338,0.205545
3.30905,0.465045,0.58684,0.0479636,-0.0198762,0.14158
1.02621,-0.135311,0.196476,0.0440557,-0.109114,0.281803
0.359063,-0.131332,0.351015,0.0634555,-0.000551313,0.287719
1.05035,0.238244,0.636484,-0.211185,0.11287,0.115992
0.75784,0.515234,0.695561,-0.0390695,0.15193,0.181956
2.44052,0.873651,0.526449,-0.0273223,0.522864,-0.0541181
2.80923,0.541758,-1.57486,0.058874,0.223085,0.0247698
1.25327,0.0567061,-2.29661,0.176372,-0.0758017,0.11438
0.442222,0.0867215,-1.9761,0.106641,-0.334395,0.174604
-0.0538591,0.16951,-0.662165,0.0305618,-0.452322,0.126587
-0.132571,0.542134,1.64297,0.249797,-0.212245,0.0735147
0.168538,0.671636,1.91571,-0.0941459,0.0781775,-0.030926
3.36466,0.652458,1.49401,0.0887661,0.413577,-0.0710298
2.12837,0.00647462,-0.100549,-0.0163149,0.057539,-0.0238177
-0.747662,-0.630906,-1.15106,-0.0158629,-0.0483777,0.0162122
-0.879922,-0.783575,-1.16018,0.0288031,-0.144038,0.108537
-1.65825,-0.68225,-0.363485,0.206001,-0.26777,0.160503
-0.793629,-0.484059,0.948385,0.131223,-0.108172,0.013768
-0.340421,-0.0801304,0.617311,-0.177598,-0.211409,0.0670055
-1.91434,-0.32219,0.790353,-0.0206745,-0.0423802,0.087678
0.14864,0.228338,1.30095,-0.174496,0.197905,-0.0893763
-0.325485,0.291407,1.1214,-0.0910876,0.228829,-0.0266778
0.331237,0.562567,0.0899841,0.0858855,0.451953,-0.214134
0.75651,0.410134,-0.764332,0.465586,0.268148,-0.202122
1.34227,-0.305083,-1.45734,-0.214563,0.120328,-0.344017
0.595189,-1.50429,-1.55493,0.542949,-0.343156,0.0068866
-2.59937,-2.13544,-2.23912,0.237109,-0.38918,0.221774
-1.54431,-1.39541,-1.9141,0.231544,-0.457733,0.199274
-0.214393,-0.917036,0.386015,0.0727014,-0.632395,0.255695
-0.805784,-0.693913,2.49788,0.229851,-0.384942,0.279765
-1.53931,-0.645385,3.6637,0.592382,-0.016788,0.369971
-0.885641,-0.141659,2.45767,-0.00801086,0.34895,0.0743865
-1.6701,0.232006,0.779125,0.140204,0.291222,0.157479
-1.75171,0.158636,0.325204,-0.216173,0.436522,-0.0688627
-1.82321,-0.0242899,0.144487,-0.135157,0.390674,-0.0977111
-0.483318,-0.00640753,-0.656224,-0.126058,0.744078,-0.417535
0.177629,-0.027904,-1.66757,0.317383,0.327417,0.11273
-0.350375,-0.0737778,-2.47272,0.0755957,0.121125,-0.0399871
1.07295,0.335528,-2.3632,0.336543,-0.14471,0.142981
1.56317,0.639129,-2.01929,0.121157,-0.512667,0.183499
0.551832,0.725821,0.0812018,0.0233455,-0.590918,0.161745
0.273312,0.89368,2.48949,0.268302,-0.357452,0.107003
1.86962,1.42169,3.36176,0.148769,-0.093069,-0.298382
-0.680002,-0.238696,2.64391,0.380313,0.18742,-0.439418
0.997659,-0.517404,0.97988,0.0526167,0.53797,-0.103001
2.16474,-0.320018,0.130348,-0.137857,0.521487,-0.115843
1.69174,-0.368944,-0.563459,-0.176257,0.426904,-0.0291536
1.99947,-0.152291,-1.15136,-0.158209,0.354177,0.0187035
2.09368,0.0158956,-1.44806,-0.0752404,0.281132,0.0594786
0.950113,-0.214953,-2.00857,0.47033,0.0882379,0.409623
0.555395,-0.172251,-2.80525,0.293004,-0.0246292,0.419618
0.022383,0.732571,-2.39535,0.264723,-0.201421,0.342084
0.957523,1.31771,-0.907295,0.256175,-0.33209,0.218956
1.00229,1.39538,0.156542,0.144397,-0.42335,0.116373
0.525742,1.09069,1.03073,0.0971647,-0.426155,-0.0344917
-1.34141,0.0453609,2.30838,0.326126,-0.356174,-0.0273099
-4.55269,-1.38988,2.99695,0.581572,-0.0176643,0.123011
-5.53164,-2.53191,1.89484,0.384164,0.601026,0.363194
0.1162,-0.801231,0.77969,-0.434413,0.515957,0.466299
-1.01192,0.382414,-0.888305,-0.147913,0.348843,0.395754
0.435631,1.19089,-1.57407,-0.213614,0.29493,0.111597
2.34974,1.43189,-0.985094,-0.0944619,0.129384,-0.107544
2.2699,1.1642,-0.771036,0.0223477,-0.0836849,-0.265159
0.324176,0.32634,-0.0003975,0.249572,-0.17768,-0.195664
0.00616777,-0.550999,0.887706,0.0446037,0.361105,-0.315374
2.85789,-0.545289,-0.111338,0.257651,0.305898,-0.0153087
-0.460713,-1.31902,-1.74706,0.0495471,-0.125076,0.257708
-2.03423,-1.03095,-2.62454,0.191727,-0.253919,0.364675
-0.569449,-0.185143,-1.5016,0.170983,-0.437093,0.172217
0.0135905,0.129638,0.998712,0.165789,-0.586285,0.198202
-1.77515,-0.263265,3.39109,0.277813,-0.146821,0.0516813
-1.85882,0.0216218,2.55875,0.420648,-0.137176,0.0948251
-2.18723,-0.387748,1.66588,0.0278195,0.474277,0.0117431
-0.569405,0.0546456,0.621989,-0.169285,0.424574,0.0551099
-1.49127,0.210282,0.0394975,-0.197388,0.514942,0.0245979
0.745015,0.639393,-0.390837,0.0447059,0.566641,-0.118493
1.34327,0.386096,-0.81861,0.503931,0.366163,-0.135501
2.01779,0.385423,-1.52232,-0.173683,0.136519,-0.227074
2.63764,-0.648363,-1.11797,0.32957,-0.0376156,0.0942378
0.453411,-0.968486,-1.25763,0.0240535,-0.273136,0.268319
-0.39045,-0.653215,-0.926274,0.0291303,-0.26577,0.391917
0.318462,-0.0162952,0.143902,0.112571,-0.276062,0.430218
0.0555647,0.623163,1.02452,0.371879,-0.198452,0.37256
1.23897,1.23446,1.08482,-0.212854,0.0308833,-0.152052
1.04006,1.15687,0.614458,0.3008,-0.114519,-0.0972028
0.0505898,0.690377,0.36483,-0.0820479,-0.029898,-0.417806
-0.461972,-0.203955,0.614452,-0.0358675,-0.0381404,-0.270103
-1.65982,-0.552673,0.431662,-0.108496,0.130925,-0.179847
-0.926941,-0.342879,0.380691,0.0351741,0.300729,0.0336431
0.483802,0.154831,0.337871,0.465389,0.402232,0.00756609
3.23018,0.428117,-1.01803,-0.120446,0.33149,-0.148749
1.38157,-1.00627,-2.30634,0.286803,-0.0585207,0.210978
-1.27887,-1.18232,-3.33659,0.243911,-0.354646,0.234084
-0.84351,-0.411292,-2.05355,0.166881,-0.493494,0.189296
0.596344,0.403794,0.426427,0.132713,-0.648493,0.148151
0.229132,1.01582,3.28666,0.399661,-0.412725,0.0165899
-0.609545,0.2096,3.69476,0.29362,-0.000938833,-0.152109
-2.91741,-0.49974,1.44591,0.3491,0.101009,0.176716
-4.51657,-0.884401,0.0833479,-0.0722038,0.346799,0.134096
-0.339511,-0.216574,0.781671,-0.30611,0.468311,0.115673
0.0460657,0.489203,0.160973,-0.144897,0.313847,0.00267768
-0.278873,0.701821,-0.563892,-0.00573987,0.372953,-0.151522
1.45147,0.56624,-0.380241,0.525935,0.397095,-0.250798
1.65233,0.0179875,-1.66448,-0.194826,0.0376257,-0.263952
1.73678,-0.876703,-1.36134,0.287945,-0.158054,0.0227683
-0.696519,-1.07097,-1.11169,0.103906,-0.292327,0.225093
-0.385669,-0.352191,-1.04467,-0.0361034,-0.346334,0.247931
-0.0318722,0.29194,0.330776,-0.0498669,-0.41642,0.212269
-0.149064,0.562914,1.91202,0.194451,-0.184335,0.103672
0.516153,0.594107,2.32246,0.360299,0.135749,-0.164746
-1.07946,0.412474,1.00026,0.0231739,0.0120803,-0.108065
-2.82047,-0.630164,0.207715,-0.0902306,0.216528,-0.0151579
-1.2666,-0.127744,-0.133764,-0.169016,0.366384,-0.115046
0.374493,0.125271,-0.120712,-0.154611,0.180921,-0.0921892
-0.321692,0.2987,-0.204576,-0.0124743,0.338656,-0.0634556
0.775318,0.45536,0.0602853,0.444645,0.258556,-0.0769694
1.97842,0.403803,-0.802456,-0.174021,0.199944,-0.162615
2.75163,-0.595678,-1.4833,0.317468,0.0757232,0.110137
-0.64788,-1.17753,-2.76798,0.124307,-0.271863,0.265819
-0.513951,-0.744053,-1.61423,-0.012274,-0.407883,0.217152
0.0555311,0.0469897,0.179906,0.0898689,-0.432701,0.248733
0.0309156,0.539254,1.89896,0.196095,-0.278267,0.0693185
-0.856182,0.120814,2.9059,0.150911,-0.0389649,-0.0764142
-0.616314,-0.0349968,1.87248,0.374893,0.183242,-0.0888817
-1.04004,-0.102349,1.04649,-0.160906,0.24753,-0.0716008
-0.366901,0.0221568,0.456279,-0.12646,0.417113,-0.0278752
-0.188506,0.227797,-0.376708,-0.213193,0.357856,-0.108832
0.135906,0.119959,-0.818202,0.0820058,0.24931,-0.0274845
0.20506,0.05517,-1.18614,0.47183,0.29139,-0.0582376
2.00756,0.301315,-1.97698,0.163391,0.0911017,-0.147793
1.03056,-0.787637,-2.04623,0.227355,-0.237118,0.141964
-0.503666,-0.729394,-2.38998,0.132776,-0.275346,0.209024
-0.831928,-0.902951,-2.21058,0.22304,-0.217145,0.0572109
-0.0649935,-3.08516,-2.40939,0.31541,0.135351,-0.567617
1.59962,-3.15081,-0.751977,-0.151201,-0.180719,-0.399583
0.244792,-2.1371,0.487529,-0.188838,-0.484423,0.135166
0.897018,-0.661476,1.62471,0.173262,0.293885,0.075893
1.16303,-0.590716,0.66578,0.0048632,0.00654721,0.141098
0.419373,-0.886158,-0.00820998,0.0785783,-0.0810233,0.339378
-0.405675,-1.02007,-0.588461,-0.041929,-0.0566337,0.263795
0.310628,-0.360174,-0.422312,-0.0666552,0.0286982,0.0444106
0.178588,-0.0806684,-0.0773737,-0.112451,0.0603311,-0.156319
0.382878,0.0771622,-0.139601,0.114061,0.0264436,-0.0703893
0.804061,-0.106769,-0.0716561,0.072901,-0.199438,-0.0317508
0.667974,-0.300651,0.173767,0.146261,-0.0723867,0.025068
-0.0691592,-0.46024,0.221188,0.0502693,-0.0231787,0.0547011
0.290638,-0.36311,0.333025,-0.0675921,0.0972821,-0.028558
0.159251,-0.254611,0.624583,-0.0789128,0.0700121,-0.145438
-0.0853531,-0.319309,0.173202,0.0916512,-0.127514,0.0242999
0.620058,-0.261087,0.175466,-0.141131,-0.082616,0.00821781
0.172604,-0.274615,0.1867,-0.120575,-0.0449822,0.147084
0.158831,-0.219044,0.194835,-0.0849117,-0.120248,0.18853
-0.283836,-0.105327,0.282192,-0.0922732,-0.128894,0.151449
-0.248429,-0.0291404,0.494452,0.0297444,0.030551,-0.0107224
0.438717,0.303537,0.446787,-0.307037,0.159443,-0.278125
0.0509934,-0.0182366,0.139708,0.139294,0.0569589,-0.136708
0.975966,-0.254184,0.00153006,0.0512108,-0.144315,-0.149508
-0.000790051,-0.570248,0.260621,0.0231906,-0.1036,0.105332
0.22038,-0.509359,0.357216,-0.0307521,0.0171246,0.115616
0.0857462,-0.385164,0.460614,-0.0779406,0.0665967,-0.0321451
0.492904,-0.176854,0.642424,-0.101637,0.0482844,-0.177042
0.508294,-0.398746,0.206926,0.105884,-0.0478485,0.0453079
0.486446,-0.0981456,0.446366,-0.0673631,-0.160585,0.0408227
1.03426,-0.666267,0.165753,0.0713654,0.131177,0.0808978
4.44,-1.58805,-0.757889,0.091724,0.270062,0.00155371
-0.621,-1.29852,0.133741,-0.533893,-0.431822,0.315259
-3.51048,0.515023,1.78115,-0.0621,-0.331198,0.251929
0.873479,0.127928,1.00301,-0.0920252,0.181131,-0.140503
2.48748,-0.701138,-0.210015,0.182754,0.298052,-0.0856386
0.517761,-0.0538123,0.155575,-0.0924968,-0.191912,0.0854963
-2.38092,0.468102,1.0944,0.0283058,-0.169366,0.171254
1.78259,-0.345256,0.193187,-0.00349331,0.175905,0.0288522
0.448181,-0.0628436,0.458814,-0.176562,0.087468,-0.115214
0.147466,-0.094105,0.777357,-0.0470906,-0.0213265,-0.164451
0.236169,-0.322521,0.307984,0.112781,-0.0697843,0.0137562
0.385843,-0.488968,-0.127372,0.0876004,0.0932537,-0.124655
0.600815,-1.12758,0.0645512,-0.11466,-0.286707,0.111027
1.00423,-0.216614,1.33909,-0.20848,-0.136808,0.110266
-0.277463,-0.182369,0.820143,0.0875558,0.00370875,0.170552
0.099509,-0.198738,0.785332,-0.163977,0.0563338,-0.069205
0.207857,-0.378972,0.389445,0.0486413,0.0671194,-0.0813226
0.291962,-0.16438,0.358453,0.114754,0.0894881,-0.0468383
0.213933,-0.07895,0.309525,0.0977705,-0.0490844,0.189623
-0.420774,0.938712,0.452271,0.129248,-0.0238257,0.479305
-0.139014,2.66005,1.44437,0.156854,-0.0603735,0.461399
0.779906,4.71399,2.93887,0.259704,-0.0908212,0.489195
-0.794218,4.57253,1.999,0.43482,0.0261956,0.0180178
-2.53262,3.26534,2.02234,0.589814,0.0104703,-0.117604
-2.4812,0.937945,1.56536,0.32289,0.547071,-0.478647
-1.04078,0.0382381,0.197221,0.0111228,0.329662,-0.562744
-1.66812,-0.975587,-0.739855,-0.164701,0.246107,-0.179707
0.0151303,-0.940933,-0.963494,0.0604706,0.390871,-0.0266165
0.379187,0.435571,-0.432559,0.250906,0.364299,0.104507
2.57878,0.459297,-1.7953,0.0424504,0.241434,0.0628539
1.33787,-0.497543,-2.17517,0.135404,-0.210025,0.238634
-0.789509,0.0576156,-1.43989,-0.0485588,-0.375785,0.320871
0.509798,0.183774,0.406158,-0.0240924,-0.397314,0.237177
0.157124,0.442108,1.98767,0.318358,-0.31952,0.166074
-0.962102,0.602142,2.61176,0.460922,0.0160877,0.220964
0.931518,1.05892,1.35939,-0.0327704,0.186781,-0.0123534
-1.32893,0.315254,0.273413,-0.0354671,0.119599,-0.177521
-2.03689,-0.593114,-0.257574,-0.196333,0.212013,-0.30445
-1.77402,-0.772078,-0.471254,-0.138357,0.3247,-0.0748088
-0.473571,-0.203954,-0.612173,-0.0298034,0.160343,0.040434
-0.383313,0.64302,-0.0275434,0.295284,0.206453,0.179103
2.65826,1.03803,-0.672607,-0.235862,0.310654,-0.135095
3.34826,-0.000178091,-1.54583,0.27325,0.00794324,0.0954648
0.29124,-0.763226,-1.84615,0.0156995,-0.278707,0.141594
0.0989246,-0.564401,-1.23914,-0.0210238,-0.327192,0.235627
0.192828,0.232681,0.137543,0.0859685,-0.396155,0.242557
-0.577291,0.261772,1.77881,0.435802,-0.310665,0.11129
-1.19408,-0.288516,2.03009,-0.0312347,-0.0856906,-0.0364556
-1.61808,0.0635196,2.18755,0.267885,0.013977,0.126917
-0.24827,0.238274,1.9223,-0.15189,0.472272,-0.0661621
-0.974561,0.740245,0.338228,-0.149801,0.363123,-0.0970721
-0.696258,0.271804,-0.476123,-0.0911427,0.449392,-0.157359
0.315697,0.239674,-0.697572,0.134088,0.387747,-0.323607
0.59759,-0.596817,-1.23493,0.119258,0.306487,-0.196589
1.85816,-0.666415,-1.3943,0.136455,0.0835966,0.0546403
0.643428,-1.061,-1.54587,0.115764,-0.106381,0.294218
-0.350664,-0.671338,-2.11092,0.0771757,-0.282869,0.431314
-0.151345,-0.440594,-1.40756,0.0696615,-0.452015,0.399667
0.22828,0.479635,0.876507,0.284328,-0.409028,0.214594
-0.455191,1.19431,3.04788,0.27956,-0.169465,-0.0282367
0.768792,1.09686,2.83086,0.355089,-0.118553,-0.07216
-5.00364,-0.471139,1.62702,0.154434,0.367636,-0.0354254
0.37104,-0.288709,0.764495,-0.228115,0.702525,-0.0647844
0.218973,-0.329582,-0.0724049,-0.162682,0.395141,-0.10337
-0.511509,-0.236467,-0.895243,0.0218483,0.460715,0.0282738
-0.275445,-0.206881,-0.977889,0.569603,0.389828,0.256935
2.8863,0.736188,-1.5331,-0.0607347,0.247478,0.142325
3.53214,0.29384,-2.53857,0.437654,0.026282,0.320241
-0.359368,-0.438153,-3.76535,0.369786,-0.371311,0.370387
1.07854,0.177976,-2.6624,0.307744,-0.479703,0.300973
0.454753,0.655816,-0.288395,0.0449016,-0.723454,0.238338
-0.230442,1.18206,2.85862,0.277318,-0.409977,0.0602044
-1.03159,0.788323,3.98218,0.422361,-0.0574711,-0.100713
-1.94484,-0.0366577,2.79065,0.477147,0.268409,-0.0182145
-2.4449,-0.394395,0.805921,-0.025352,0.425503,0.0816546
-0.0681375,0.0160922,0.17109,-0.203063,0.516411,0.107849
0.0443617,0.28302,-0.461671,-0.175445,0.364162,0.0113188
0.323694,0.339598,-0.97278,0.131132,0.318554,-0.0374153
0.348377,0.195134,-1.10851,0.380464,0.152022,-0.0497149
2.03028,0.426849,-1.04068,-0.0428133,0.077613,-0.0190481
4.10672,0.430995,-1.4368,0.222268,-0.133119,0.283462
0.885531,0.0722551,-0.896289,-0.11263,-0.213836,0.158629
-0.680558,-0.628646,-0.442449,-0.13253,-0.341765,0.26581
-1.75975,-0.117837,0.4306,0.114334,-0.146225,0.192276
0.933659,0.781538,1.5642,0.262709,-0.0521376,-0.0734796
0.183496,-0.0683772,1.45472,0.055791,-0.00791717,-0.0808406
-1.93158,-0.292637,0.576398,0.0348882,0.0165154,0.0664543
-3.31756,-0.958908,0.142808,-0.0718705,0.271747,0.18024
0.287421,0.22827,0.0983904,-0.218766,0.298005,0.0779805
0.854749,0.419159,0.161247,-0.0790633,0.117108,0.113271
0.0821646,0.404141,-0.209094,0.00271332,0.187523,-0.0211558
0.0933056,0.596522,-0.145125,0.188801,0.127194,0.0123689
1.45222,0.332558,-0.234484,-0.0648918,0.262331,-0.153011
2.44746,-0.135087,-0.894437,0.296196,0.033565,-0.0610731
0.00534392,-0.930925,-1.35358,0.0504736,-0.221333,0.0993927
-0.598371,-0.788293,-1.2948,-0.0239201,-0.264408,0.199391
-0.251314,-0.360627,-0.314365,-0.00917298,-0.355619,0.219706
-0.765767,-0.190319,0.948714,0.120062,-0.311734,0.183688
-0.968383,-0.123953,2.16128,0.525886,-0.100605,0.136335
-1.17894,0.222948,1.30776,-0.231578,0.00104478,-0.0803474
-1.99044,-0.39916,0.721109,0.095754,0.0737852,0.111717
-2.26259,-0.22744,0.454002,-0.164117,0.239581,-0.00852311
-0.636511,0.112379,0.62029,-0.193497,0.240088,-0.0362161
-0.848448,0.300988,0.263548,-0.0212617,0.339085,-0.101065
-0.305869,0.429701,-0.421198,0.179125,0.31221,-0.158749
-0.307397,-0.172229,-1.3351,0.0640731,0.186096,-0.220958
0.876614,-0.223121,-1.8261,0.245108,-0.0418924,-0.150877
-0.92861,-1.2447,-1.59865,0.248624,-0.312951,0.10294
-0.899448,-0.833101,-1.39179,0.0707015,-0.393937,0.111893
-0.771448,-0.897639,0.240625,0.122857,-0.475308,0.166642
-1.26703,-0.853153,1.64135,0.115762,-0.28971,0.155921
-1.36804,-0.698726,2.55456,0.132445,-0.0691518,0.146232
-1.96581,-0.841399,2.56287,0.260775,0.227914,0.240454
-2.24109,-0.482794,1.04338,0.0228885,0.416997,0.243912
-0.703463,0.163257,-0.245735,-0.246584,0.385335,0.133965
-0.611422,0.390309,-1.0888,-0.0158563,0.204513,0.0480415
0.375089,0.491428,-1.47895,0.124871,0.0802496,-0.18716
1.41184,0.138819,-1.08814,0.105592,-0.161401,-0.241274
-0.219606,-0.309592,0.172633,-0.0235195,-0.642097,-0.0631421
-3.21855,-0.638727,0.635794,0.0208523,-0.0585299,0.00421178
-0.115936,-0.420922,1.30416,-0.0592871,0.0428514,0.0526654
-0.0119315,0.267764,1.17294,-0.0277663,0.170555,0.0368403
0.874421,0.339498,0.428948,-0.0568882,0.317038,0.00116909
0.576016,0.2588,-0.643299,0.00762129,0.212782,-0.0184593
0.545055,0.253287,-1.36565,0.0370204,0.0926777,0.001261
-0.293974,-0.704691,-1.00252,0.126921,-0.315409,0.18175
-1.04026,-0.707277,-0.361019,0.0604436,-0.343327,0.228761
-0.942834,-0.42156,0.580934,0.0516872,-0.330537,0.213584
-1.06928,-0.149278,1.68454,0.0654405,-0.171525,0.158727
-1.22651,-0.0629591,2.1097,0.121836,0.0558363,0.0951491
-1.36281,-0.0861954,1.59114,0.171156,0.293457,0.0713787
-1.53894,-0.182457,0.83465,0.222082,0.425211,0.081179
-1.71771,-0.216163,-0.192583,-0.124476,0.453079,-0.00901741
-0.271169,0.00428222,-1.17263,-0.232341,0.268718,0.0246772
-0.783595,0.00238032,-1.87117,0.0424875,0.0765154,-0.0248024
1.04711,0.375481,-1.52056,0.0159446,-0.13426,-0.0970179
0.818846,0.0768868,-0.110193,-0.0711745,-0.360344,-0.132425
-0.353785,0.164919,0.854995,-0.0793483,-0.194765,-0.0919576
-0.597691,0.0812461,1.76922,0.0900831,-0.0224552,-0.00509673
-0.229506,0.344633,1.66525,0.248542,0.301511,-0.0543109
1.07841,0.0366064,0.179519,-0.11524,0.470932,-0.156137
1.32298,-0.235806,-0.947148,0.197031,0.239314,0.0103549
0.285913,-0.871537,-1.48006,0.0647841,0.0784046,0.111916
0.40252,-0.344501,-1.80572,0.0418445,-0.109733,0.244596
0.449334,-0.0602794,-1.12999,0.0270026,-0.310723,0.250892
-0.0399406,0.355542,0.0450503,0.0410333,-0.359427,0.233384
0.244746,0.712154,1.29282,0.22026,-0.216543,0.0279431
-1.31194,0.100595,1.52922,0.0793002,-0.115476,-0.0847439
-1.05264,-0.213671,0.909325,0.0481892,0.226869,-0.120252
-1.23813,-0.264379,0.541412,-0.087173,0.195387,0.0359164
-0.0760531,-0.015006,0.0975342,-0.162831,0.263563,-0.0691475
0.3769,0.252896,-0.442075,-0.132487,0.168277,-0.00145596
0.15079,0.294343,-0.661151,0.0497241,0.102556,-0.0107082
0.366213,0.428364,-0.28512,0.273195,0.0764255,-0.0157288
1.1301,-0.200556,-0.420286,-0.0935851,0.152229,-0.0600331
1.60623,-0.294813,-0.971349,0.29384,-0.0141034,-0.0725473
-0.297514,-0.830862,-2.2956,0.119839,-0.0923269,0.143277
-1.33476,-0.575901,-2.93793,0.20089,0.0296732,0.146212
-0.645689,0.198306,-2.16896,0.0390328,-0.239961,0.0670117
0.309769,-0.0776581,0.477618,-0.0805167,-0.546786,-0.015443
1.25548,0.174529,2.15912,0.245716,-0.0346192,0.107464
-0.574468,0.243686,2.43069,-0.0380943,-0.0706267,-0.0173093
0.206739,0.699826,2.7779,0.314292,-0.0934591,-0.103241
0.24233,0.448446,1.98153,0.00364363,0.0306338,-0.0593636
-0.520391,-0.0704805,1.16788,-0.0938553,0.253122,-0.0655704
-0.245142,0.0460949,0.146724,-0.115925,0.300291,-0.109944
-0.391762,0.190337,-0.508653,-0.0146816,0.236536,-0.0555325
-0.509344,0.323064,-0.405245,0.281963,0.248678,-0.00430512
1.10734,0.232038,-1.05783,-0.171722,0.207678,-0.135125
1.9856,-0.459433,-1.48385,0.384322,0.219688,0.0409995
0.301853,-0.776862,-2.92089,0.25812,-0.2883,0.0996092
-0.311959,-0.503582,-2.06806,0.0754421,-0.470573,0.199116
0.0172901,-0.185018,0.0423583,-0.0133005,-0.623008,0.189784
-0.164723,0.444652,2.68948,0.284557,-0.279215,0.120535
1.36518,1.12045,3.1353,0.480739,0.198008,-0.0292751
-1.74443,0.526164,0.973523,0.0493723,-0.0695325,-0.0594595
-3.23474,-0.486355,0.409298,-0.0787665,0.253419,-0.0581658
-0.804888,-0.365224,0.480648,-0.186684,0.48707,-0.16505
1.08119,0.201406,-0.260671,-0.128792,0.22412,-0.104426
-0.042515,0.134153,-0.721739,0.113888,0.116881,-0.0482994
0.15135,0.233941,-0.384032,0.639452,0.172337,-0.0815967
1.33911,-0.0142468,-1.29898,-0.181574,-0.056095,-0.0897933
0.858144,-0.857758,-1.29424,0.175781,-0.145758,0.0792328
0.136993,-0.658499,-1.279,-0.0256611,-0.287036,0.213437
-0.468843,-0.434515,-0.513436,-0.0552927,-0.392141,0.307354
-0.677638,0.159086,1.044,0.0534783,-0.355952,0.24756
-0.576566,0.572208,2.76297,0.42331,-0.0489185,0.0757499
-0.509223,0.0363324,1.77838,-0.0856103,0.159675,-0.174744
-1.26917,-0.221985,0.336947,0.145738,0.0998731,0.0228821
-2.02665,-0.389692,0.0103894,-0.205628,0.236139,-0.0515773
0.102629,0.0752365,-0.142784,-0.22729,0.249516,-0.055832
0.368203,0.290233,-0.474402,-0.0719348,0.129081,-0.0839239
-0.205195,0.277494,-0.677335,0.0736204,0.0427227,-0.0892173
-0.335294,0.288108,-0.161832,0.320414,0.0408081,-0.123062
1.11868,0.260178,-0.233134,-0.131771,0.0820347,-0.159212
1.92061,-0.572859,-0.40316,0.131744,-0.033578,0.0314816
-1.07234,-0.93131,-1.43027,0.00139773,-0.251043,0.168285
-0.918808,-0.649878,-1.08214,-0.0223246,-0.295316,0.221731
-0.42956,0.0257842,0.668634,-0.0662137,-0.332605,0.158494
-0.0385607,0.352208,2.41383,0.23974,-0.0675661,0.0661179
-0.360747,-0.132734,1.67747,0.0598061,0.173805,-0.0804193
-0.720301,-0.0240189,0.162493,0.140963,0.189519,-0.0357689
-1.62756,-0.239848,-0.259406,-0.197987,0.131987,-0.059215
0.196677,0.124689,0.0784174,-0.179567,0.295297,-0.140869
0.764229,0.119259,-0.338255,-0.0659055,0.0702619,-0.103299
-0.600524,-0.143779,-0.4656,0.117537,0.0653754,-0.0411646
0.2349,-0.111416,0.0768872,0.279843,0.262989,-0.131007
1.61645,0.361317,-0.212694,0.0485718,0.134965,-0.0817853
1.41975,-0.844405,-0.746247,0.0561655,0.0350879,0.154625
-0.5693,-0.573282,-2.33248,0.0440254,-0.234961,0.284963
-0.0405475,-0.218527,-1.42996,0.0185727,-0.317058,0.20608
0.156024,0.222799,0.576593,0.0622592,-0.472325,0.211867
-0.929168,0.636582,2.77085,0.444793,-0.220539,0.0338272
-0.49717,0.312597,2.16555,-0.169986,0.0519585,-0.130036
-1.51553,-0.224446,0.654435,0.0402333,0.107973,0.116778
-1.70436,-0.0626546,0.244534,-0.160282,0.34355,-0.087079
0.38589,0.25,0.348629,-0.236397,0.216889,-0.0480205
-0.13955,0.357915,0.136546,0.0138046,0.284494,-0.106747
0.231965,0.583644,-0.119953,0.301237,0.308256,-0.108088
2.27927,-0.101803,-0.871783,0.207609,0.364806,-0.305801
2.50348,-1.45251,-2.27788,0.134856,-0.208461,0.0824012
-1.69494,-1.91767,-1.93265,-0.105307,-0.408888,0.280316
-1.94813,-1.36483,-0.490507,-0.00965893,-0.362185,0.441131
-0.792478,-0.220224,0.939189,0.138946,-0.349481,0.368277
0.877577,1.28386,2.29689,0.36483,-0.103713,0.196028
1.92792,1.54755,2.05337,-0.152634,0.107857,-0.12467
0.475593,1.02494,0.668748,0.234814,0.0501499,-0.261853
-1.13725,0.189807,0.0868883,-0.0818747,0.128126,-0.383883
0.105306,-0.277059,-0.0197547,-0.101477,0.245365,-0.421747
-1.32223,-1.04583,-0.444291,0.0153785,0.112757,-0.105314
-1.67247,-0.674731,-0.959794,-0.000317156,0.134977,0.0315853
-0.180697,-0.0433837,-0.293728,0.0877541,0.244052,-0.0374466
3.047,0.0164689,-1.32163,0.188553,0.146558,0.158262
0.242633,-0.387741,-2.16824,-0.0219048,-0.398549,0.230176
-1.52088,-0.345807,-0.942127,0.015773,-0.353714,0.268747
0.387748,0.0885115,0.851853,-0.0908503,-0.354385,0.160216
0.051947,0.573207,2.38388,0.347978,-0.202174,0.174537
-0.378218,0.417241,2.80425,0.517609,0.281368,-0.0699755
1.11817,0.792091,0.346788,-0.349967,0.211473,-0.188599
-1.12502,-0.332502,-0.493051,0.0687454,0.147808,-0.00746655
0.336261,-0.0777648,-0.793738,-0.147735,0.304738,-0.294503
0.439101,-0.238509,-1.0434,-0.0823407,-0.0641749,0.0113857
-0.613811,-0.0635011,-0.378556,0.0624558,-0.054886,0.0123797
-0.0581892,0.367445,0.73405,0.44038,0.055543,0.0194023
1.94966,0.626787,0.248402,-0.197015,0.164131,-0.106584
1.24211,-0.386751,-0.559696,0.0183876,-0.0698491,0.0780871
-0.527563,-0.501657,-1.06134,-0.0959302,-0.0811314,0.12828
0.0259666,-0.275941,-0.636554,-0.06618,-0.162465,0.20218
-0.494922,0.0336479,0.250575,0.215157,-0.198585,0.209262
-0.381741,0.217825,1.1644,0.483745,-0.0451019,0.0850191
0.562563,0.706171,0.45211,-0.309264,-0.0315651,-0.225827
-0.849844,-0.165082,0.0721027,-0.0710753,-0.164432,0.039506
-0.931647,-0.205222,0.294293,-0.124179,0.104191,-0.149335
-0.19616,-0.135517,0.157698,-0.158334,-0.00534829,-0.0701228
-0.947977,0.115723,0.563537,-0.000782847,0.0769848,-0.0407513
0.0606074,0.536881,1.16291,0.419174,0.279752,-0.0858949
1.61474,0.327266,-0.138759,-0.130682,0.342241,-0.246872
1.14584,-0.98004,-1.46012,0.0727113,0.0306326,0.0442828
-1.33405,-1.29355,-2.21956,-0.016464,-0.187358,0.202327
-1.03438,-0.86172,-1.32481,0.0256178,-0.249755,0.266478
-0.381681,-0.163492,-0.0383426,0.15623,-0.387359,0.340641
-0.886273,0.578154,1.75316,0.331987,-0.26821,0.284833
3.1764,1.50287,1.47496,-0.341463,0.199289,-0.366218
0.0248274,0.42761,0.356809,0.156977,-0.373374,0.0308055
-2.90902,-0.419856,0.703908,-0.0504353,0.155575,-0.250898
0.526175,-0.414665,0.882345,-0.189356,0.323406,-0.212866
-0.654595,-0.358157,0.311282,-0.118142,0.159908,0.200251
-0.32146,0.3366,-0.525368,-0.0198543,0.444583,0.090363
0.648417,0.768766,-1.58871,0.435936,0.200909,-0.0538871
2.04747,0.708355,-1.93247,0.304683,-0.061516,-0.122821
1.15976,-0.164049,-1.52198,0.145653,-0.382159,0.0377951
0.348419,-0.3799,-0.693437,-0.00745255,-0.455994,0.160187
-0.571747,-0.35736,0.802003,0.0204435,-0.431807,0.18475
-0.665486,0.156801,2.18516,0.187991,-0.218138,0.132199
-0.29964,0.283598,2.77122,0.631395,0.0995024,0.0976562
-1.28947,-0.339292,1.05028,-0.296494,0.207833,-0.161713
-1.6891,-0.571129,-0.364333,0.0938653,0.158875,0.197833
-3.17422,-0.519618,-0.871332,-0.168972,0.208971,0.124395
0.369109,0.506242,-0.342245,-0.237597,0.116307,-0.0149461
0.791221,0.767509,0.197207,-0.11741,-0.00129482,-0.136976
0.261873,0.635534,0.244161,0.141929,0.100739,-0.301252
-0.181743,-0.330055,0.0916978,0.380166,0.185101,-0.251725
-0.0430195,-0.357914,-1.11815,-0.144426,-0.0714271,-0.0829346
-0.854593,-1.2066,-1.1627,0.196369,-0.117585,0.0644773
-1.36387,-0.490932,-1.39896,-0.0533211,-0.277477,0.109228
0.241844,-0.232259,0.00183393,-0.101393,-0.290038,0.149201
0.069389,0.332199,1.40254,0.0279304,-0.240082,0.0525663
-0.257394,0.701638,1.78035,0.305821,-0.0240649,-0.0412224
-0.537181,-0.148982,0.861685,-0.181249,0.128327,-0.174463
-0.922538,-0.368335,-0.12772,0.147824,0.0755579,0.00164676
-2.91202,-0.607059,-0.671052,-0.126343,0.0590436,-0.0118329
-0.395581,-0.681673,-0.712429,-0.157535,0.107863,0.150482
-1.77619,-0.0701168,-1.61052,0.0123039,0.0710295,-0.145963
-1.66655,0.725413,-2.94655,0.331507,0.369644,-0.186495
-0.128853,-0.581421,-1.90981,-0.250077,-0.245247,-0.35733
-0.793561,-1.02179,-1.12948,-0.188633,-0.303909,-0.18498
-0.639221,-1.19751,0.463156,0.158431,-0.127469,-0.0695332
-0.914447,-1.23656,1.83747,0.370599,-0.185398,0.0167289
-0.0736742,-0.734569,2.16324,0.349257,-0.124685,0.0433418
-0.371579,-0.128504,1.64748,0.232952,-0.00799537,0.0594543
1.88635,0.881388,1.04144,0.174113,0.13145,0.0320382
-0.340782,0.611548,0.316851,-0.0349557,0.114733,0.0867605
-1.25571,0.478478,-1.03944,0.0733506,0.239818,0.00726199
-1.08132,0.144527,-1.95869,0.0545752,0.32466,-0.123717
-0.8933,-0.502259,-2.17496,-0.0988318,0.337231,-0.207424
-0.51377,-0.519885,-2.3166,-0.129864,0.073548,-0.210082
-0.190433,-0.814276,-1.31768,-0.148956,-0.327127,-0.347723
-0.159885,-0.956406,-0.11678,0.0292866,-0.332272,-0.244561
0.303985,-1.26891,1.57727,0.188603,-0.365544,-0.0993217
2.05072,-1.18099,2.52133,0.440513,0.04537,0.0141869
0.667267,0.414825,2.48551,0.498298,0.0598477,0.231941
1.01746,1.28913,1.09965,0.280074,0.305428,0.0283507
-1.34103,0.892164,-0.911019,0.137307,0.330907,-0.21243
-1.07566,0.274164,-1.7362,-0.197835,0.210011,-0.215145
-2.01914,-0.543567,-2.45991,-0.209868,0.204102,-0.137097
-0.714554,-1.20266,-2.51165,-0.374039,-0.26649,-0.353285
-0.753091,-1.91408,-0.696162,0.10879,-0.447343,-0.133627
-0.689679,-1.50224,1.496,0.524383,-0.294403,0.103197
-0.0639858,-0.635531,1.99275,0.439141,-0.156063,0.157041
-0.536112,-0.0319421,1.20817,0.0526879,0.0816087,0.125058
-1.29662,0.16198,-0.0128954,0.233253,0.294711,-0.0521917
0.244332,-0.419686,-0.277944,0.0131363,0.360002,0.0903652
-0.457617,0.204777,-0.831666,0.0352989,0.264269,0.248133
-0.00431659,0.514433,-1.31705,-0.411423,0.114154,-0.103489
0.554512,1.02757,-1.45719,-0.536732,0.0707347,0.0472625
0.0653378,0.367419,-1.05941,-0.422811,-0.239886,-0.1443
-0.68464,-0.804634,0.316198,0.172168,-0.246423,0.054656
1.43028,0.583921,1.77675,0.415738,-0.223063,0.160511
1.61251,0.956982,1.39144,0.445821,-0.222075,0.18525
-0.0208461,0.0813754,1.48075,0.337699,-0.133665,0.0684242
-0.418489,0.130567,0.728895,0.0925348,0.0480261,-0.101577
-1.19973,-0.786663,0.596223,-0.175399,0.234244,-0.191696
0.251033,-0.837337,0.345557,-0.177091,0.211583,-0.138354
0.39195,0.217234,-0.060353,0.140091,0.288179,0.40074
-1.21353,-0.329295,-1.75204,-0.183615,0.414941,0.0816529
0.135904,-0.218651,-2.03511,-0.167562,0.290104,-0.0118206
-0.0465755,0.226334,-1.76516,0.119215,0.0569118,0.0993479
1.08821,0.961228,-1.29342,0.105988,-0.223245,0.0911347
2.7545,0.896638,-0.246097,0.130668,-0.309964,0.0197313
0.92706,0.389962,1.20878,0.136904,-0.465589,0.228343
-0.533605,0.627815,2.81512,0.457934,-0.210783,0.111707
1.1973,0.533116,2.55404,0.140609,0.157585,-0.220008
-1.10515,0.159341,1.00393,0.277264,-0.164909,0.266142
-3.77282,-0.584831,0.0606729,-0.111718,0.253628,-5.20945e-05
0.0166508,-0.0767086,0.282053,-0.202141,0.254614,-0.0461986
-0.420362,0.232554,0.406621,-0.191035,0.135499,-0.0103236
1.3261,0.709608,0.914376,0.0200691,0.568947,-0.270289
1.92974,-0.00907438,-0.530725,0.524317,0.2496,-0.218992
0.588776,-0.92647,-1.61,-0.20739,0.047796,-0.0788835
1.19149,-1.34276,-0.564375,0.221873,0.130237,0.202052
-0.0233359,-1.01556,-1.50914,0.10066,-0.0569556,0.490767
-1.30617,0.0461169,-2.13305,-0.0360218,-0.169745,0.349595
1.1133,0.766863,-0.643521,0.0353948,-0.248897,0.251622
1.28711,1.18473,0.765838,0.340398,-0.278499,0.113977
1.7829,1.4147,1.15726,0.447447,-0.156984,-0.234436
-0.712758,0.440777,0.847583,0.0403047,-0.567628,0.118464
-4.9128,-0.899539,2.24663,-0.00119621,0.146561,-0.0151109
-0.17512,-1.217,2.34763,0.193851,0.660188,0.0433255
0.647859,0.286518,-0.0352699,-0.238779,0.197329,0.113172
-1.1213,0.051698,-0.0841797,-0.0856328,0.476724,0.0197115
0.446016,0.726568,-0.152136,0.187882,0.400109,-0.0440769
-0.09218,0.662681,-0.878144,-0.0912838,0.368222,0.00899464
3.03233,-0.00449499,-1.10038,0.234034,0.201148,0.0984126
2.23937,-0.474076,-1.80762,0.21373,0.0160835,0.230668
0.605238,-0.920423,-2.42093,0.104724,-0.333697,0.383733
-1.21456,-0.422517,-1.91705,0.0193052,-0.490529,0.35258
-0.710358,0.243711,0.55398,0.231775,-0.459457,0.215213
-0.157036,0.749284,3.41301,0.546957,-0.0593468,-0.0203514
2.03658,1.11384,2.08864,0.123152,0.109955,-0.106627
-4.10815,-0.542967,0.642516,0.157425,-0.0284674,0.0578306
-3.62552,-0.890769,0.488449,-0.152439,0.349762,0.101318
-0.128635,-0.289069,0.950664,-0.197916,0.3575,0.0920334
-0.0577575,0.228104,0.462498,-0.0463728,0.386789,0.0814046
0.311357,0.711911,-0.0403581,0.172332,0.442135,0.0239373
1.68493,0.527162,-1.24884,-0.0486923,0.383843,-0.168687
2.00624,-0.535962,-2.47908,0.321674,-0.0300426,0.0188297
-0.226387,-1.07771,-2.31725,0.0274481,-0.33275,0.176269
-0.725667,-0.591064,-1.57436,0.0455379,-0.206197,0.256044
0.356859,0.555538,-0.257136,0.0418596,-0.397268,0.274621
1.11664,0.898807,1.50642,0.263341,-0.393062,0.283969
-0.0890216,0.847573,2.83994,0.311733,-0.125886,0.00148171
-0.0471884,0.976054,1.80607,0.169619,-0.0668553,-0.181923
-2.38673,0.161889,0.684993,-0.07241,0.134186,-0.0131215
0.49507,-0.151519,0.4681,-0.166289,0.391891,-0.131432
-0.585767,-0.627033,-0.0927318,-0.137187,0.190188,-0.142346
-1.67776,-0.0447069,-0.476689,0.0664581,0.34716,-0.0932211
0.456073,0.204249,-0.739564,0.320241,0.319589,0.0387437
1.56753,0.31648,-1.44024,-0.176422,0.0621756,-0.00617254
2.46671,0.0512056,-1.25672,0.216109,0.21075,0.182836
1.39389,-0.348633,-1.90883,-0.0208363,-0.224399,0.322604
-0.31993,-0.486901,-1.0863,-0.0861704,-0.345625,0.243613
-0.64924,0.037647,0.636745,0.0389247,-0.371005,0.270524
-0.510582,0.559009,2.57312,0.532158,-0.189567,0.228615
1.14645,0.636975,2.06062,-0.1325,0.189722,-0.16562
0.667158,0.644199,0.48709,0.234297,0.0591848,0.0655593
-2.04512,0.0310292,-0.0864373,-0.16337,0.122189,-0.118345
0.449318,0.149412,0.273654,-0.215586,0.314624,-0.240106
-0.0343594,-0.0124137,-0.235687,-0.0456684,0.142379,-0.0977322
-0.281348,0.0544987,-0.562925,0.0408384,0.13365,-0.0580386
0.621281,-0.0837408,0.18606,0.563301,0.275425,-0.136613
2.63138,-0.448278,-0.935534,0.128229,0.0581727,-0.235446
-1.15753,-1.51242,-2.08179,0.129922,-0.232875,0.0758408
-1.76873,-1.2993,-2.0331,0.068425,-0.36037,0.222356
-0.513587,-0.711098,-0.487243,-0.0125453,-0.487116,0.231148
-0.455863,0.0698717,1.43325,0.133892,-0.46252,0.244227
1.0545,0.860841,3.59098,0.696601,0.0341134,-0.164108
-0.832286,-0.0287681,2.28297,0.162425,-0.0100564,-0.306295
-4.68305,-1.55093,0.635147,0.0563619,0.288313,0.173892
-1.92852,-0.789934,0.243064,-0.257321,0.361853,0.330884
0.275837,0.593592,0.0884893,-0.302479,0.281537,0.245134
0.589208,1.16951,-0.30085,-0.101795,0.228825,0.0023585
1.5651,1.42355,0.0142116,0.161983,0.2842,-0.34706
0.392068,0.188121,-0.21616,0.566773,0.113175,-0.412976
0.609356,-0.939647,-1.19635,0.128509,0.0340574,-0.371496
-0.254825,-1.72722,-1.13464,0.0878682,-0.13396,0.019165
-0.825509,-1.5799,-1.43263,-0.0159944,-0.23933,0.325091
-1.09679,-0.844581,-0.715071,0.0222455,-0.341782,0.435565
-0.327521,0.17623,0.613545,0.20943,-0.326629,0.29007
-0.583601,1.02626,2.79312,0.531505,-0.168684,0.262831
2.23859,1.95411,1.94077,0.0793325,0.115895,-0.204067
-0.310037,0.715704,0.63789,-0.0898037,-0.0391224,-0.23358
-2.47464,-0.230796,0.272651,-0.183881,0.260142,-0.437715
-1.34735,-0.290573,-0.436464,-0.128425,0.332993,-0.306674
0.0309797,-0.152898,-0.521947,0.100731,0.210554,-0.144823
-0.00330901,-0.169707,-0.374517,0.626956,0.289263,-0.240457
1.60915,-0.653621,-1.51927,0.264604,0.102257,-0.148189
-0.404633,-1.74243,-1.95247,0.14664,-0.27184,0.222969
0.206276,-1.32242,-1.57147,0.125283,-0.329651,0.222594
-0.510795,-0.636589,-0.0272139,-0.0832726,-0.52773,0.379792
-1.45459,-0.16747,2.10845,0.14647,-0.350017,0.391637
-1.91367,0.257917,3.87866,0.644831,0.0684252,0.279758
0.777843,1.11513,1.67043,-0.157783,0.415021,-0.235488
-0.761882,0.472022,-0.24262,-0.0434998,0.265245,-0.133455
0.4561,0.0951837,-0.190744,-0.264466,0.268882,-0.308307
-0.174657,-0.170898,-0.519393,-0.0725258,0.173981,-0.332922
-0.314764,-0.252427,-0.777955,0.0724394,0.0943288,-0.182014
-0.0696648,0.239629,-0.282331,0.185052,0.0636302,-0.0730171
0.0828716,-0.303757,-0.0271495,-0.0765904,0.153768,-0.122312
-0.280271,-1.00579,-1.53474,0.191054,0.023848,0.0831313
-0.167726,-0.869777,-2.50429,0.124162,-0.197021,0.20713
0.152479,-0.295519,-1.39456,0.0282258,-0.451745,0.316787
0.396474,0.489526,0.493488,0.0463544,-0.5565,0.23105
-0.555465,0.948083,2.69437,0.385077,-0.306731,0.151757
-0.47126,0.842916,3.06504,0.445589,0.190536,-0.362507
-1.44886,-0.136427,0.926565,0.201531,0.163426,0.0196518
-1.27126,-0.409946,0.359522,-0.202199,0.331887,0.00579339
-0.641963,-0.0890626,0.261498,-0.187957,0.38397,-0.0335489
0.735089,0.0503746,-0.0376865,-0.156184,0.384097,-0.14758
0.230051,-0.134944,-0.553371,0.122736,0.267776,-0.104009
0.849739,0.0582641,0.246897,0.28468,0.208486,-0.2171
2.34377,-0.332956,0.135361,0.132826,0.426646,-0.127376
0.914092,-2.00569,-2.88179,0.408098,-0.143085,0.272051
-2.18836,-1.90994,-4.44221,0.0771757,-0.352837,0.432079
-0.374659,-0.112892,-2.25354,0.0675792,-0.454055,0.355133
-0.0174993,0.413978,-0.127272,0.0921252,-0.410458,0.198149
0.667884,0.687489,2.02965,0.165083,-0.323797,0.110865
-0.345094,0.838809,2.60397,0.125228,-0.351289,0.060527
-0.398851,0.689807,2.89322,0.3091,-0.0509227,0.0981802
0.275364,0.937898,2.11631,0.029008,0.325477,-0.157792
1.2733,0.820419,1.33977,-0.00139666,0.419396,-0.246681
0.229009,-0.0532749,0.333975,0.0359445,0.440115,-0.358308
-0.767608,-0.630795,-1.10094,0.0523453,0.360638,-0.057089
-0.152977,-0.891777,-1.63971,0.150179,0.308844,0.0274544
1.73718,-0.389552,-1.3378,0.0983081,0.118856,0.197976
1.00914,-0.425714,-1.56253,0.156791,-0.110444,0.395081
0.551608,-0.0382399,-1.31246,0.109695,-0.215712,0.474331
1.42756,0.920406,-0.667918,0.0391178,-0.256757,0.382477
2.00155,1.0589,-0.022391,0.320159,-0.306795,0.384418
0.189489,1.31613,0.907254,-0.0863626,-0.175405,-0.0345223
0.6779,1.51836,1.31378,0.199049,-0.187716,-0.13374
-0.604557,0.714152,1.45523,0.115818,0.0809751,-0.271767
0.741646,0.098526,1.23241,-0.00948215,0.254596,-0.296956
-0.0492936,-0.436862,0.155922,-0.125678,0.451465,-0.162265
1.13831,-0.0555319,0.0478461,-0.0378786,0.527162,0.00675714
1.168,-0.41419,-1.01283,0.172095,0.513305,0.129538
2.2072,-0.436596,-2.3796,0.204459,0.223718,0.264737
1.504,-0.48594,-2.19174,0.19857,-0.0529307,0.421583
0.619397,-0.247923,-2.07372,0.164312,-0.266348,0.525458
1.32792,0.527414,-1.2598,0.0437083,-0.367001,0.496481
0.224004,0.800942,0.132892,0.254568,-0.521321,0.363221
-1.08354,1.27084,2.55674,0.45523,-0.299826,-0.140575
-1.61489,0.138911,2.53751,0.248285,-0.0789784,-0.265329
-1.26487,-0.486803,1.61333,0.132562,0.546753,-0.106826
1.07095,-0.0625356,0.900261,-0.20886,0.459027,0.043218
0.481955,-0.0802225,-0.305972,-0.0865859,0.551138,0.00336742
0.949862,-0.0346535,-1.53216,0.0427284,0.321856,0.0116916
1.28819,0.136899,-1.63137,0.283816,0.0832829,0.0282076
1.94299,0.090514,-0.996099,-0.0436921,-0.0545743,0.0506127
1.72417,0.162615,-0.176818,-0.0868618,-0.10109,0.179004
0.21808,-0.253383,0.127955,0.119088,-0.072946,0.443144
-0.635778,-0.105638,-0.66258,0.0536789,0.0208193,0.330101
0.22894,0.512586,-0.441112,-0.0903029,-0.106981,0.199194
0.195891,0.574108,-0.0933212,-0.036795,-0.173165,0.16155
-0.491182,0.385815,0.666062,0.409165,-0.0711789,0.0601156
0.0509688,0.462426,1.33965,-0.0133954,0.14252,-0.284073
0.368511,0.213918,0.474867,0.0804073,0.0309268,-0.0204849
-0.811814,-0.311524,0.0304496,-0.0997992,0.0891124,-0.0622698
0.517496,0.0355211,-0.0747357,-0.124861,0.216219,-0.0788703
0.534983,0.0972708,-0.185121,-0.207005,0.0781098,0.0318769
-0.302691,0.026915,0.146623,-0.0288418,0.11659,0.128314
-0.798586,0.210422,0.413893,0.488692,0.319898,0.158596
3.89354,0.947807,-0.425942,0.147109,0.421817,-0.0209754
3.10808,0.883417,-2.7673,0.105978,0.230916,0.29159
1.15517,-0.0607165,-2.29837,0.0823029,-0.41546,0.382753
-0.0681999,-0.285285,-0.524666,-0.0532122,-0.496153,0.398231
0.102954,-0.0192305,0.810878,0.29598,-0.389171,0.338658
-0.717471,0.25014,2.39271,0.497025,-0.206182,-0.0404596
0.0783479,0.460665,2.17636,-0.224752,0.0704558,-0.234084
-0.266393,-0.129915,0.885005,0.0627313,0.110855,0.00841844
0.236922,0.0701223,0.0425847,-0.0220892,0.385648,-0.012463
1.3375,0.0718448,-0.328329,-0.199083,0.219965,-0.000135899
0.24105,-0.0927529,-0.855975,-0.0763197,0.113201,0.0323719
0.0396426,0.0903383,-0.698718,0.0561174,0.0446332,0.146421
0.707606,0.617902,0.126272,0.112762,0.202813,0.0217397
3.67078,0.708268,-0.0598114,0.189841,0.202901,0.225392
2.24288,0.255042,-1.46403,0.00743067,-0.164898,0.297353
-0.562072,-0.215201,-0.977856,-0.0456427,-0.291181,0.291417
0.337487,-0.0241346,-0.0589965,-0.0577728,-0.167295,0.196364
-0.84112,0.0197438,0.0890951,0.232731,-0.071297,0.280102
-1.06914,-0.024676,-0.976715,0.317881,0.319699,0.179721
-2.0471,-0.0780876,-2.01108,-0.236919,-0.0389116,-0.13993
-3.21866,-0.925701,-2.20764,-0.0833953,0.291682,-0.145159
0.268044,-0.953864,-2.14418,-0.0431576,0.224666,-0.230316
1.91903,-1.09439,-1.15519,-0.0309609,-0.0689487,0.00812376
-1.00793,-1.48246,-0.766165,-0.16124,0.0458946,-0.262303
1.18992,0.0860822,-2.02353,0.651025,0.0430299,0.534754
0.873943,-0.0971969,-0.680489,0.217002,-0.409511,0.0663542
0.000617389,-0.103097,0.454177,0.0771494,-0.0275133,0.168524
0.171255,0.48909,-0.463614,0.254001,-0.0245456,0.0699301
0.40474,0.522375,-0.265294,0.269434,-0.117725,-0.111978
-0.379996,-0.110974,0.0606812,0.18472,-0.24134,-0.135896
-0.542348,-0.699723,1.11631,0.223009,0.127481,-0.0693743
-0.387868,-0.67181,0.0418518,0.278547,0.309483,0.0670216
0.101309,-0.432151,-0.139507,-0.337848,0.0567817,-0.140123
0.218157,-0.621076,-0.00428807,-0.088878,0.0536872,-0.135959
-0.367824,-0.836985,-0.333096,0.00281954,-0.216853,0.0376372
0.139778,-0.553281,0.246064,-0.0293936,-0.230793,0.140473
0.0327604,-0.103381,0.305785,-0.0347853,-0.107489,0.201985
0.20625,0.267221,0.953647,0.0533933,-0.189398,0.182783
1.61785,1.02311,3.16786,0.00492981,0.051012,0.37526
3.62106,4.79451,1.9489,0.319967,0.352758,0.549455
3.77,5.12137,-0.435303,0.486369,-0.165117,0.151631
4.61744,3.09489,-0.727771,0.431482,-0.301158,0.00875378
0.112683,-0.0135903,-0.235133,0.351275,-1.10577,0.00105894
-7.62571,-2.71599,0.784468,0.444283,-0.178237,0.0155951
-1.31486,-3.19635,1.87218,0.350203,0.227945,-0.0545545
-0.227517,-1.58201,1.28027,0.100238,-0.0658827,0.200092
0.519781,-0.540997,0.715387,-0.228057,0.129412,0.22774
2.56478,0.174063,1.23447,-0.203728,0.274591,0.152339
0.894071,0.460627,0.675034,-0.255111,0.266777,0.048185
-3.36252,0.105596,-0.164509,0.0635421,0.374956,0.182334
-0.348154,0.790524,-0.57543,0.447317,0.631394,0.180685
5.43829,1.99445,-1.09473,0.135316,0.584621,0.0432822
2.93902,0.28399,-3.54508,0.592655,-0.245492,0.183578
-1.65262,-0.339139,-3.90655,0.30857,-0.346967,0.048406
0.102981,-0.459966,-1.99522,0.240441,-0.695909,0.0583599
0.0627891,-0.977447,0.773134,0.376348,-0.695739,0.195616
0.648193,-0.670832,3.49147,0.591317,-0.396754,0.266162
3.7904,1.55415,4.1865,0.247393,0.281523,-0.113246
2.06561,1.73977,2.07614,0.186889,-0.0789509,-0.013266
-2.809,0.635567,0.765813,-0.125776,0.0998997,-0.517974
-3.97329,-0.651071,0.576405,0.0530074,0.577805,-0.243655
-0.622931,-0.584244,-0.0749893,-0.0091154,0.694598,-0.149196
-0.654849,0.025466,-0.834455,0.49543,0.395404,0.127158
1.29206,0.908352,-2.12251,0.183987,0.329982,-0.0748798
2.12666,-0.317276,-3.20873,0.446787,-0.0197986,0.132662
0.498751,-0.457548,-2.27368,0.0649986,-0.585523,0.230376
0.894804,0.821349,-0.125433,-0.0816671,-0.390297,0.0167613
2.21176,0.513867,1.1476,0.211254,-0.363972,0.27235
-0.694687,0.590191,2.60855,0.531345,-0.241728,0.197117
1.26638,0.753297,1.43633,-0.12885,0.114541,-0.221453
-1.78121,-0.17967,-0.123619,-0.2209,-0.144153,0.0984626
-4.42458,-0.486157,-0.604851,-0.192002,0.0432968,0.104239
0.222844,0.413663,-0.20437,0.0435323,0.21169,-0.32046
1.20627,0.593587,0.486224,-0.161101,-0.238613,-0.0955442
-2.45844,0.514215,2.3802,-0.0255784,0.00529516,-0.206235
-0.0953964,-0.615672,1.72752,0.315741,1.14834,0.00511813
3.85127,0.210015,-2.08276,0.0961792,0.301106,0.0420941
-0.0291794,-1.20479,-2.82534,0.172156,-0.0817652,0.0176756
-0.842691,-0.901764,-2.76304,0.240068,-0.223659,0.162245
0.633261,-0.344497,-1.70657,0.129862,-0.42719,0.165917
0.101907,-0.0784552,-0.0712818,0.253264,-0.596038,0.251077
-1.45458,-0.0846015,2.45943,0.483484,-0.405083,0.186478
-1.19813,-0.0639761,2.75835,-0.0114356,-0.14185,-0.145069
-1.80178,-0.583378,2.35238,0.292228,0.0789995,0.125211
-2.10384,-0.48095,1.54284,-0.03984,0.463043,0.0429788
-0.0806206,0.164834,0.921182,-0.217678,0.50985,0.0795621
0.00973978,0.494994,-0.212105,-0.152562,0.63717,0.024508
0.88874,0.566455,-1.11639,0.17145,0.409417,0.0382306
1.94528,0.060345,-1.14441,0.160095,0.38606,-0.192828
2.07288,-0.802984,-1.82428,0.436109,0.0916755,-0.0256406
1.45327,-0.94962,-2.25944,0.218192,-0.24793,0.209785
0.769592,-0.545718,-1.8757,0.134781,-0.35325,0.438957
-0.615325,0.357314,-1.02558,0.0308566,-0.463014,0.554298
-0.338533,0.794531,0.498371,0.254284,-0.20083,0.177936
-0.706741,0.719024,2.36299,0.296223,-0.299869,0.0772864
-0.106055,0.469329,2.16385,0.31433,-0.0547671,-0.322711
-2.12134,-0.440794,1.28608,0.0566128,0.0881864,-0.108686
-1.72398,-0.735451,0.943305,-0.147268,0.313962,-0.0307298
-1.09321,-0.736108,0.22981,-0.200109,0.390918,0.0435269
-0.606981,-0.0459725,-0.128639,-0.104764,0.410961,0.0183544
-0.0284182,0.604023,-0.188383,0.350528,0.37259,0.0363878
1.69918,0.931303,-1.03986,-0.0659143,0.338191,-0.138319
3.03415,0.283295,-2.0692,0.147342,-0.0103022,-0.0342538
0.218088,-0.527508,-2.69632,0.250711,-0.306518,0.0959257
0.119025,-0.502815,-1.44677,0.245667,-0.465412,0.272388
-0.496447,-0.361654,0.209314,0.0653234,-0.579116,0.258059
-0.981428,-0.141855,2.29809,0.237426,-0.367229,0.216693
-1.2823,0.0534386,3.28188,0.239814,0.0855433,0.00903273
0.390792,0.532507,1.85545,0.224577,0.250803,-0.0292889
-0.986793,0.153761,0.305639,-0.0695984,0.196237,-0.0852492
-0.848814,0.0602686,0.0460605,-0.284175,0.264633,-0.0313725
-0.394183,0.298622,0.324012,-0.138247,0.365535,-0.0699029
0.65727,0.503408,-0.618953,0.183731,0.362345,-0.149267
-0.73806,-0.0283923,-1.73726,0.561067,0.0700237,-0.111936
0.503982,0.235443,-1.81766,0.108116,-0.0261097,-0.248666
1.19439,-0.260481,-1.06715,0.124682,-0.326833,0.0492176
-0.471258,-0.344119,-0.746964,-0.0961201,-0.437188,0.0558831
-0.721086,-0.494001,0.786294,0.00404996,-0.348989,-0.0123727
-1.32431,-0.607376,1.66303,0.067086,-0.244825,0.0772438
-2.05325,-0.604417,1.81842,0.340251,0.0170027,0.179082
-1.67606,-0.575733,1.28115,-0.155316,0.2801,0.00964499
-0.948112,0.0535637,-0.16582,0.132773,0.17021,0.0575718
-1.40733,-0.0495505,-0.688275,-0.183988,0.0882084,-0.0861483
-1.06408,-0.0652957,0.229842,-0.244476,0.0745292,-0.111138
-0.130773,0.278997,1.43311,-0.113758,0.25501,-0.224455
-0.246781,-0.030474,0.948537,0.0964985,0.441499,-0.136336
-0.201376,-0.0933753,-0.183443,0.430848,0.641651,-0.131265
1.47593,0.257331,-2.31954,-0.177838,0.28611,-0.311561
1.24254,-1.18102,-2.73205,0.485297,-0.160583,-0.0256007
-0.960819,-1.4065,-2.51553,0.192476,-0.432366,0.111726
0.0490176,-0.701013,-1.19786,0.0806037,-0.500977,0.14108
-0.0465923,-0.346668,0.421385,0.0340589,-0.632087,0.21416
-1.44514,-0.249884,2.62828,0.253903,-0.440529,0.161194
-2.68846,-0.682932,4.29108,0.799292,0.122836,0.132095
-1.19762,-0.294703,2.15083,0.225264,0.297595,0.124678
-3.21342,-0.556855,0.416233,-0.188604,0.4138,0.16778
-1.70272,-0.0371592,0.161024,-0.333286,0.492525,0.153004
-0.408901,0.582788,0.331732,-0.164934,0.482765,-0.0103436
0.457858,1.06379,-0.340196,0.192484,0.553756,-0.217188
0.16928,0.317898,-1.84723,0.214338,0.2519,-0.326958
1.39251,-0.222556,-2.50585,0.336589,-0.0589437,-0.242912
-0.356755,-1.42985,-2.17015,0.280801,-0.385027,-0.0206814
-1.1263,-1.23692,-1.51612,0.186456,-0.527491,0.116275
-0.718241,-0.874638,0.583629,-0.103834,-0.527472,0.119628
-1.12915,-0.58776,2.58037,0.0856068,-0.416757,0.211591
-2.52379,-0.341737,4.001,0.690205,0.0628633,0.25212
1.65718,-0.012049,2.53364,-0.121479,0.795589,-0.186957
1.11716,0.546108,-1.04703,0.0510377,0.155644,0.234947
-3.13338,-0.0419956,-1.39035,-0.301427,0.199503,-0.155938
-0.560597,0.0681278,-0.222162,-0.278112,0.174234,-0.20433
-1.98355,0.110132,0.581054,0.190093,0.153551,-0.174479
-0.674072,0.0476312,0.225228,0.457785,0.41509,-0.237241
0.648909,-0.121208,-1.07009,0.190582,0.222095,-0.216825
1.28518,-1.13236,-2.37748,0.245881,-0.0687245,-0.0832572
-1.31298,-1.77367,-3.10853,0.202087,-0.475073,0.207475
-1.35255,-1.27317,-1.57443,-0.0084368,-0.545125,0.160061
-0.306267,-0.43089,1.01502,0.00198984,-0.591222,0.202691
-0.849715,0.361328,3.60952,0.572768,-0.379006,0.164326
1.64305,0.512196,4.22048,0.284448,0.604284,-0.609275
-0.593388,-0.28512,0.56211,0.137751,-0.247728,0.301639
-6.28256,-0.843087,-0.884088,-0.257413,0.331953,0.135883
-0.0389275,-0.0930432,0.076797,-0.366316,0.360217,-0.0166932
0.45082,0.616274,0.304817,-0.144091,0.111256,-0.0237261
0.037125,0.692337,0.251488,0.143958,0.304996,-0.163644
0.789277,0.372529,-0.270365,0.424736,0.285635,-0.245436
0.81288,-0.149757,-1.44325,0.0952981,0.0949731,-0.216713
0.0865432,-1.32689,-2.34973,0.365332,-0.230388,0.169477
-1.97456,-1.12484,-3.14941,0.379148,-0.509137,0.324167
-0.894269,-0.368853,-1.63627,0.315836,-0.659881,0.1691
-0.0411859,0.0856407,1.46461,0.0368748,-0.647748,0.111311
0.512505,0.396758,3.69025,0.182571,-0.240539,0.022974
0.149668,0.503227,3.94249,0.341919,0.105296,-0.0334227
-0.854585,-0.1479,1.95029,0.168383,0.481855,-0.0693527
