rotation_x,rotation_y,rotation_z,acceleration_x,acceleration_y,acceleration_z
-2.90679,-1.30591,1.69069,0.0854761,0.176671,0.404007
2.45017,0.584623,1.45167,0.0518047,0.280603,0.361535
2.3876,1.08456,0.209865,0.0492476,0.234279,0.167547
0.99345,1.00337,-0.395295,0.169405,0.238468,-0.231037
2.38326,-0.337427,-2.34841,-0.127398,0.215131,-0.296852
2.17301,-0.585954,-3.45236,0.134435,0.198121,-0.117847
4.54054,-0.23165,-3.84433,0.187087,0.214159,0.360073
3.38074,0.272431,-3.79958,0.269142,-0.010124,0.463779
2.49156,0.97469,-2.70697,0.421811,-0.11799,0.50982
-1.29186,-0.0200268,-0.803229,0.710671,0.0201652,-0.342464
0.0707706,-0.702512,-0.768058,-0.119825,0.190309,-0.360293
0.12298,-0.263143,-1.1639,-0.103342,0.0705687,0.00436163
-0.71237,-0.454578,-0.432831,0.200881,-0.141226,0.363548
-0.43709,-0.490633,1.05892,0.155058,-0.481903,-0.0703616
0.623832,-0.614977,0.659825,-0.187436,0.0929743,-0.0590174
1.33123,-0.716201,1.72196,0.31659,0.0466068,-0.29096
-1.90986,-1.34442,2.69901,0.826743,-0.428874,0.404759
-1.82546,-3.23658,5.57824,0.698278,0.159487,0.268298
-4.45762,-3.79617,5.74724,0.74246,0.0908387,0.876616
-0.775479,-0.722899,6.14177,0.454966,-0.104432,0.626794
-2.95653,0.516886,4.96843,0.385365,0.459633,0.583181
-0.287844,0.887137,3.44173,0.222679,0.834735,0.274431
-0.00376716,1.52464,0.999395,0.080573,0.856416,-0.265754
0.107727,0.653147,-1.30239,0.449999,0.773375,-0.310697
0.782547,0.0492533,-2.43598,-0.00526822,0.304668,-0.144282
5.70161,-0.531142,-1.73533,0.403867,0.0441902,-0.0389812
-0.46443,-0.701933,-1.8898,0.0453181,-0.28509,0.0468794
-0.104411,-1.24965,-0.970309,0.149976,-0.244497,0.31874
-1.16822,-0.711264,-0.19995,0.0555949,-0.430284,0.318693
-0.190809,0.440422,1.53461,0.256871,-0.259334,0.195143
0.782674,0.795274,2.68453,0.090372,0.055116,-0.0722465
0.812223,0.649246,1.04659,0.215405,-0.0089948,0.0386253
-2.97921,-0.244564,0.17702,-0.110542,-0.00680168,0.00284612
-1.84141,-0.138802,0.674216,-0.16571,0.387319,-0.122759
0.741014,0.490971,0.912725,-0.179617,0.382076,-0.155139
0.519794,0.321705,-0.0731831,0.221071,0.388049,-0.087173
-0.226514,-0.432566,-1.68444,0.0482012,0.23441,-0.153731
1.70841,-0.221812,-1.88798,0.212246,0.0297621,0.112575
1.08305,-0.342132,-1.32647,-0.011297,-0.256021,0.10922
0.712023,-0.008825,-0.860974,-0.057427,-0.20038,0.255345
0.407914,0.148457,-0.235953,0.200031,-0.196764,0.237477
-1.18023,0.41375,-0.706258,0.324035,0.000368536,0.182354
-0.613828,0.653766,-1.87137,0.207778,0.421913,0.0206656
2.77884,-0.956527,-3.13678,-0.274327,0.349991,-0.343711
-2.73069,-1.01714,1.35825,-0.11281,-0.835181,-0.168336
-1.87279,-0.684643,1.88926,0.27447,0.490183,0.0753511
0.996814,0.329349,0.227716,-0.0192642,0.250177,0.188475
-0.265106,0.0592275,0.370054,-0.136634,-0.0249101,-0.135545
-0.190202,-0.417393,0.287949,0.237889,0.396437,0.105409
0.766732,0.192833,0.251248,-0.164778,0.022837,-0.019717
2.55182,0.382279,-0.595921,-0.156221,0.208418,0.143472
3.20226,0.648002,-1.07387,-0.268893,-0.049775,0.0850111
-0.956568,0.59561,0.152432,-0.158076,-0.244308,0.197336
1.27565,1.46339,2.56451,0.318422,-0.121124,0.105485
2.85821,0.82221,2.49233,0.795064,-0.0813252,0.294514
-1.69717,-0.367979,0.404857,-0.152903,-0.158019,-0.0924218
-2.8223,-0.591716,0.25358,0.110017,-0.0855221,0.156577
-3.04173,-0.867083,0.289803,-0.137145,0.0996805,0.111757
0.154832,0.0507157,0.570411,-0.0905312,0.143672,-0.00693864
1.21742,0.453711,0.580324,-0.150885,0.129463,-0.0254849
-0.404579,0.340882,0.719225,0.00556922,0.225529,-0.0708943
0.16122,0.0667302,0.568194,0.427087,0.547966,-0.100355
3.30007,0.511156,-1.09826,0.0320285,0.255557,-0.0276617
2.08546,-0.621717,-1.34121,0.118663,0.012269,0.031902
-0.0845933,-0.866235,-1.61059,0.0556071,-0.154519,0.207088
-0.263197,-0.595457,-1.3897,0.0784844,-0.282881,0.272387
-0.355952,-0.185543,-0.367,0.356664,-0.359034,0.253634
-0.694873,0.260727,1.18129,0.254158,-0.247197,0.065423
1.54287,1.04441,1.31815,-0.0918909,-0.21612,-0.0969415
-1.78838,0.180476,1.85191,0.00130701,-0.138407,0.0603594
-1.19533,0.0407437,1.61357,-0.0593442,0.36536,-0.214326
-0.332749,0.0637136,0.461654,-0.175615,0.263943,-0.0890213
-1.32018,-0.000782917,-0.195512,0.0594136,0.381945,-0.0687507
-0.162407,-0.0336939,-0.79998,0.114456,0.552916,-0.0440117
2.61425,0.296616,-1.90825,0.315756,0.178507,0.165596
1.38914,-0.40565,-2.69787,0.141856,-0.303099,0.11493
-0.505889,-0.462187,-2.25158,0.103457,-0.466754,0.069656
-0.130557,-0.59674,-0.234208,0.0659943,-0.557595,0.0581756
-0.634308,-0.335288,2.45363,0.367559,-0.437115,0.110444
-0.812291,-0.745248,3.73028,0.314381,0.153334,-0.0323586
-0.232328,-0.0665417,1.76425,0.155325,0.101689,0.152454
-1.95811,-0.275587,0.592394,-0.0655615,0.347456,0.079985
0.187517,0.401352,0.124853,-0.291908,0.422599,-0.0241629
0.639355,0.630034,-0.241416,-0.109503,0.335606,-0.206931
1.30227,0.176868,-0.706114,0.17166,0.263296,-0.294709
-0.337602,-0.521786,-0.831663,0.468702,0.110825,-0.106933
0.512289,-0.451606,-1.25845,0.190946,0.0544544,0.208827
1.22771,-0.397097,-1.54247,0.0380302,0.0132839,0.191268
0.816288,0.0821016,-1.96381,0.101282,-0.240274,0.330284
0.186981,0.269026,-1.02181,-0.00112194,-0.386039,0.27864
0.336976,1.0704,1.00361,0.137982,-0.36431,0.109294
0.656269,1.06312,3.08192,0.590423,-0.146712,0.0551859
-0.0984349,0.646257,1.99625,-0.118731,0.109217,-0.24583
-0.151372,0.380098,0.651533,-0.0564603,0.145756,0.053618
0.0899329,0.678177,0.173978,-0.24453,0.351159,0.0322232
0.785549,1.05658,-0.59943,-0.196011,0.154834,-0.0249903
-0.129306,0.695773,-0.853737,0.0294453,0.0521275,-0.0743326
0.0406366,0.485707,-0.5686,0.362517,-0.0358906,0.00449049
1.18764,-0.0245969,0.0982365,0.11678,-0.276646,-0.151405
-0.382546,0.11234,0.148098,0.00587046,-0.111235,0.0383695
-0.623101,0.0877188,0.0137993,-0.104769,0.00811273,0.00941741
-0.928762,-0.146666,0.236412,-0.0369257,-0.118354,-0.112537
-0.519073,-0.247215,0.334758,-0.0668035,0.167686,-0.12926
-0.704572,-0.48283,0.517228,0.222607,0.514105,-0.0440658
2.53367,-0.674496,-1.39688,-0.314221,0.296243,-0.0727086
1.57692,-1.46072,-0.601513,0.227409,-0.652545,0.359024
-1.87724,-0.568678,-0.824304,-0.131221,-0.285027,0.0930489
-1.94305,-0.901472,-0.574511,-0.0192825,-0.194917,-0.165712
-0.22649,-0.670951,0.657,-0.122132,-0.183316,-0.03904
-0.985706,-0.580028,1.62158,-0.00578564,0.224669,0.218019
-0.97392,-0.029845,1.04857,0.102991,0.693082,0.199222
4.59691,1.02594,-0.589233,0.00108385,0.595389,0.300465
2.78511,-0.0134446,-1.99536,0.0912241,0.0763806,0.264149
-1.08569,-0.464111,-2.99204,0.268234,-0.0892213,0.350574
-0.26267,0.317069,-2.45232,0.141315,-0.260572,0.282761
1.39008,0.836221,-0.514536,0.261553,-0.45733,0.336361
1.96336,1.41094,1.57697,0.0950199,-0.258413,0.168184
3.05322,1.99001,1.50037,0.202867,-0.337039,0.197566
0.181868,1.48479,2.11153,0.228816,-0.117723,-0.0342534
1.67621,1.12294,1.69316,0.0252385,0.198134,-0.245572
1.38863,0.33983,0.89155,-0.0833191,0.220192,-0.277144
-0.58156,-0.5652,-0.107888,-0.110729,0.41953,-0.0623668
-0.152869,-0.436988,-1.12855,0.157609,0.823808,0.203785
2.45048,0.254872,-2.02827,0.158514,0.219685,0.629698
1.23848,0.629136,-2.32799,0.148398,-0.132791,0.504984
1.3751,0.923304,-1.42334,0.193783,-0.275568,0.421575
2.0979,1.06861,-0.481338,0.285057,-0.285257,0.378056
2.73274,1.16451,-0.34496,0.624587,-0.356685,0.268898
-0.131415,0.759642,1.4601,0.530699,-0.405997,0.129562
-0.497302,0.685836,2.46569,0.10499,-0.164745,-0.103089
-0.943789,0.0308307,2.16162,-0.069983,0.115097,-0.0620369
-0.798074,-0.183451,1.24682,-0.264991,0.349357,-0.0799189
0.069607,0.000276888,0.399464,-0.211733,0.467528,7.4625e-05
-0.1674,0.125547,-0.758296,0.179469,0.629619,0.153127
0.173739,0.766431,-1.85527,0.387747,0.595208,0.063689
3.23891,0.789927,-2.97543,0.353548,0.209452,0.168734
1.06364,-0.183401,-2.80418,0.148335,-0.341394,0.196769
1.18027,0.139378,-2.03975,0.0496452,-0.41885,0.227563
0.6813,0.378504,-0.509947,0.270459,-0.576361,0.341717
0.251519,0.553522,2.261,0.529977,-0.382325,0.288472
0.0623212,0.881289,3.91212,0.390687,-0.100452,0.130403
0.572173,0.762152,2.58779,0.240558,0.249254,-0.23376
-0.925356,0.199305,0.774815,-0.170784,0.151278,-0.0996723
-1.20177,-0.164685,0.198108,-0.348384,0.362123,-0.219594
-0.0598315,-0.16808,-0.0273094,-0.0356544,0.375315,-0.154818
-0.0147229,0.0731892,-0.701828,0.281761,0.554146,-0.00837678
1.30583,-0.0359233,-2.05204,0.208006,0.481118,-0.0333475
0.864325,-0.489041,-2.96641,0.274623,-0.0365002,0.222281
0.780922,-0.587324,-3.00669,0.0634766,-0.302352,0.207939
1.10408,-0.321046,-2.08834,0.0836397,-0.562641,0.186638
0.13518,0.376034,0.284018,0.346155,-0.503896,0.272009
-0.488504,1.22224,3.17596,0.591237,-0.293254,0.184852
-0.0343713,1.38555,3.9117,0.424815,0.0162536,-0.0393817
-0.687869,0.452883,2.33506,0.100618,0.179548,-0.0744433
-1.81004,-0.131966,0.930713,-0.20876,0.396535,-0.109163
-0.75339,-0.0817758,0.157582,-0.247652,0.476169,-0.105787
0.755297,-0.000564937,-0.396095,0.0408539,0.437004,-0.245716
0.115556,-0.321867,-1.15287,0.169248,0.184383,-0.0909433
-0.557362,-0.431848,-1.41858,0.21966,0.283129,0.0883729
1.85589,0.0818432,-1.66289,0.173337,0.17946,0.207236
0.631013,-0.295361,-2.2655,0.123853,-0.143709,0.287074
0.611738,-0.103128,-2.29887,-0.033759,-0.351102,0.0933755
1.28741,0.0729843,-0.866835,-0.00104511,-0.565822,0.11492
-0.244964,0.69716,1.72078,0.329709,-0.436003,0.141401
-1.67578,0.679287,3.70819,0.783181,-0.0222979,0.283615
0.0557518,0.708931,2.47295,0.164938,0.286261,-0.117081
-0.471253,0.353128,0.972112,-0.0596623,0.183327,-0.0310247
-1.37428,-0.139648,0.390689,-0.306896,0.426803,-0.13678
-0.0263906,0.0065505,-0.330688,-0.299744,0.37894,-0.159744
0.271346,-0.147516,-0.952547,0.108124,0.234004,-0.150409
-0.0625074,-0.0956544,-1.3719,0.197635,0.150819,-0.0844849
1.23563,0.0693233,-1.15014,0.129524,0.275536,-0.0289608
1.56057,-0.286458,-1.65948,0.154996,0.170572,0.204337
0.0946655,-0.763807,-2.82434,0.100247,-0.00205749,0.256997
-0.0262662,-0.462505,-2.22735,-0.0120592,-0.358323,0.148824
0.703608,0.358176,-0.519349,0.034283,-0.588542,0.16636
0.275813,1.17411,1.63523,0.23829,-0.377096,0.154359
0.398008,1.63415,3.31871,0.544414,-0.162057,0.205029
-0.306694,1.32866,3.63538,0.585924,0.342143,-0.370201
-0.297475,-0.0215435,1.20063,0.0200625,0.167925,-0.222769
-3.60274,-1.2405,-0.302872,-0.180479,0.313759,0.0535728
-2.17376,-0.732888,-1.39597,-0.331161,0.268518,0.0757682
0.164126,0.0414124,-1.08132,-0.168605,0.034436,0.00860244
1.27937,0.389139,-0.279132,0.00615346,-0.0859636,-0.165597
0.674938,0.440645,0.202278,0.0984006,-0.00131631,-0.206993
0.328554,-0.0130372,0.227428,0.22705,0.158635,-0.0559522
-0.4188,-0.229901,-0.716334,0.12262,0.175313,0.0223027
0.607219,-0.165412,-1.26744,0.138833,0.0573505,0.15849
-0.65214,-0.299012,-1.24351,0.00506067,-0.146414,0.266446
-0.200407,0.286098,-0.59065,-0.269267,-0.178287,0.101258
0.497838,0.816662,0.130796,-0.26041,-0.0691162,-0.0344523
0.946601,0.756567,0.167055,-0.00326252,0.079819,-0.0549917
0.279615,0.659129,0.357512,0.333861,0.0945373,-0.0860296
0.217707,0.74432,1.4006,0.474213,0.0239861,-0.0678482
0.706597,0.229683,0.526436,0.0156192,-0.15015,-0.0998723
-1.10086,-0.72891,0.731026,-0.100233,-0.126279,0.0368348
-1.01982,-0.54525,0.724795,-0.222612,0.0355597,-0.053812
0.257008,-0.0419996,0.738067,-0.326657,0.0739149,0.0204479
0.060512,0.118226,0.649747,-0.0747913,0.176558,-0.0134705
0.480679,0.291925,-0.0186544,-0.00030899,0.236807,-0.0923864
0.0979593,0.424725,-0.598979,0.182236,0.128128,-0.0427005
0.232237,0.329263,-0.764535,0.338657,0.110073,0.0503084
1.29335,0.259757,-0.957775,-0.0260914,-0.00440732,0.0671442
-0.0707696,-0.230589,-0.959703,-0.0544772,0.0356086,0.184867
0.375908,-0.135805,-0.929796,-0.0672885,0.195815,0.20016
0.637197,0.388163,-1.11492,-0.209102,-0.0392166,0.116675
0.633261,0.493864,-0.535453,-0.0983754,-0.258449,0.0872037
0.0665601,0.0540375,0.597833,0.250399,-0.320574,0.0809163
-0.364834,0.00896825,1.51537,0.20231,-0.258139,-0.0412315
-0.305368,-0.0294076,2.19752,0.20821,-0.0972669,-0.0475482
-1.87383,-0.183097,2.20546,0.0305684,0.215655,-0.0647168
0.335408,0.0405399,1.54664,-0.0911827,0.500686,-0.0861393
0.489401,-0.101507,0.405966,-0.0445024,0.508174,-0.0576981
0.395176,0.0810185,-0.934335,0.00482732,0.507422,-0.106912
0.496831,0.271446,-1.94808,0.603618,0.315273,0.109912
1.65852,0.570593,-2.63909,0.218429,0.0394909,0.114207
0.520815,0.286049,-2.74942,0.240843,-0.335864,0.333094
1.28143,0.721679,-1.92349,-0.0207677,-0.472204,0.0914032
1.92501,0.419297,-0.469232,0.098817,-0.564589,0.193302
0.0755254,-0.0167757,1.03425,0.406216,-0.385017,0.253593
-1.46074,0.195649,2.11694,0.503466,-0.109851,0.0928397
-0.614215,0.472404,2.53394,0.136964,0.163123,-0.0854691
-0.410386,0.318366,1.88822,-0.120775,0.296079,-0.076439
-0.230532,0.146035,1.15492,-0.253486,0.448899,-0.0834215
0.37408,0.176509,0.518056,-0.10733,0.511457,-0.163062
-0.121892,-0.00412012,-0.97632,0.0339115,0.407368,-0.0418787
0.750626,-0.322204,-1.68258,0.379453,0.373792,0.0227947
1.37529,-0.320638,-2.3491,0.205513,0.0269291,-0.0611701
0.302915,-0.665386,-2.04103,0.107238,-0.263422,0.0723169
0.529809,-0.257406,-1.37504,0.00674045,-0.452051,0.158947
0.838991,0.232556,0.393354,0.238159,-0.436552,0.234819
-0.902507,0.259728,1.73931,0.528094,-0.360412,0.323193
-0.630501,0.217512,2.14982,0.124345,-0.0550199,0.0591703
0.183683,0.950989,2.28488,0.0759836,0.152741,-0.235505
-0.900872,0.310223,1.29559,-0.257368,0.230145,-0.158283
-0.536604,-0.0968808,0.774982,-0.248468,0.423294,-0.180595
-0.85533,-0.242424,-0.125969,0.102831,0.492114,0.0251921
-0.175623,0.318025,-1.25962,0.343499,0.486027,-0.0634304
1.78859,0.157052,-2.05469,0.171953,0.174488,-0.0225221
1.09345,-0.466282,-2.07142,0.133402,-0.129381,0.0501386
0.584721,-0.373564,-1.8036,-0.0837531,-0.331278,0.132131
0.899519,-0.112261,-0.679041,-0.0153697,-0.473778,0.245652
0.174765,0.254029,1.3908,0.306861,-0.32362,0.25454
-0.697951,0.324583,2.26427,0.624598,-0.143244,0.232498
-0.392753,0.599864,1.60439,-0.00990331,0.123201,-0.108931
-0.10918,0.229038,0.415471,-0.0874094,0.0827525,-0.0771808
-1.44405,-0.12617,0.126431,-0.348707,0.07276,-0.135824
-0.753983,-0.047146,0.411641,-0.233314,0.187417,-0.185917
-1.13122,0.0645134,0.571909,0.177866,0.274082,0.00336945
0.427477,0.685025,-0.0417034,0.309124,0.455022,-0.023533
2.67197,0.343046,-0.990549,0.00696129,0.323648,-0.0854466
1.47185,-0.633583,-1.67466,0.137552,0.00330451,0.0839151
0.137806,-0.962475,-2.18503,-0.0927742,-0.221272,0.178057
0.191485,-0.447735,-1.62937,-0.0631605,-0.347517,0.176277
0.180201,0.162161,0.170177,0.302848,-0.340329,0.29455
-0.0280253,0.468002,1.49229,0.569517,-0.226016,0.202355
-0.29127,0.638623,1.82249,0.0212246,-0.0705355,-0.11858
-0.220898,0.195172,1.15784,-0.0192975,-0.0475948,-0.105631
-1.80458,-0.212657,0.603239,-0.338728,0.052153,-0.114588
-0.779041,-0.145993,0.684644,-0.265737,0.189867,-0.104673
-1.37135,-0.151921,0.703833,0.20344,0.250315,0.0832623
0.0944294,0.559693,0.223905,0.255341,0.477754,-0.118318
1.48307,0.379564,-0.78048,0.0557542,0.301583,-0.122148
1.38467,-0.31274,-1.49436,0.123627,0.0731095,-0.0297837
-0.273886,-0.698165,-2.09854,-0.0284873,-0.180019,0.0755914
0.523759,-0.282178,-1.4935,-0.0624502,-0.286341,0.111371
0.901343,0.0277401,-0.0303271,-0.0113044,-0.37833,0.223128
-0.237198,0.309816,0.738206,0.15244,-0.347991,0.244466
-0.775083,0.526824,1.82033,0.536309,-0.184939,0.141647
0.107242,0.63806,2.8935,0.377919,0.24101,-0.186878
1.60296,0.634361,1.42573,-0.0309575,0.297543,-0.333543
-1.76537,-0.660299,-0.638456,-0.262527,0.15299,-0.107348
-2.2203,-0.528309,-1.71267,-0.318126,0.235943,-0.119257
-0.224175,-0.191259,-1.13683,-0.0654635,0.0427834,-0.0916795
0.331629,0.34761,-0.0035462,0.164996,0.0246837,-0.0468271
-0.189593,0.447901,0.312247,0.404823,0.0334309,0.0992343
1.50553,0.445653,-0.239119,0.00363195,0.0677064,-0.0106329
0.293,-0.0695961,-0.367467,0.00387955,-0.0116918,0.00849378
0.406031,-0.21936,-1.05202,-0.252936,0.00295022,0.058772
1.87874,0.292815,-1.95907,-0.218253,0.253172,0.231234
2.82337,1.60529,-3.58168,-0.0810634,0.682051,0.42197
4.03409,2.18988,-4.11836,0.212893,0.270398,0.385457
5.27756,1.49125,-2.98303,0.45094,-0.0991985,0.380566
2.60207,0.984625,-1.8679,0.319434,-0.295055,0.41876
-0.782611,0.447819,-1.21251,0.242859,-0.256385,0.160099
-0.640868,-0.110997,-0.622848,0.0239621,0.0159567,0.160975
-0.259941,0.345504,-1.46418,-0.118126,0.138509,-0.19453
-0.0559011,0.624395,-1.93534,0.00297529,0.0318783,0.200074
0.222103,0.545746,-1.58762,0.247615,-0.0686446,-0.0836787
1.38241,0.179945,-0.135287,0.180939,0.149949,-0.212094
-1.84272,-0.214833,1.17473,0.40633,-0.56532,0.403569
-5.05433,-1.15455,3.01187,0.270965,-0.257811,0.30046
-2.7552,-1.0152,3.67346,0.317207,0.497625,0.177423
-1.37783,-0.53532,1.97133,-0.213357,0.661717,0.286081
0.422212,0.937283,0.65861,-0.517584,0.546969,0.266849
1.36772,1.50452,-0.75081,-0.275306,0.474526,0.20662
0.898932,0.54241,-1.3703,0.148104,0.0563579,0.0968217
-0.0878617,-0.212565,-0.434209,0.437022,-0.128217,-0.00718343
0.518012,0.122402,0.181314,0.242264,-0.526484,-0.054745
-0.427743,0.238187,1.8438,0.0361764,-0.526719,0.0221078
-0.686527,0.372596,3.45745,0.0783908,-0.346314,0.0915834
-2.00126,0.160012,3.49344,0.298736,0.0946162,0.0764004
-0.774128,0.32738,1.99792,-0.0793406,0.435927,0.0415522
0.0312323,0.607261,0.520388,0.133171,0.538197,0.130018
-0.593551,0.615494,-1.14985,0.135755,0.567066,0.0420364
0.989534,0.77683,-2.27646,0.147952,0.240094,-0.131428
1.69625,-0.127806,-2.50407,0.381236,-0.0924056,-0.128946
0.795032,-0.800686,-2.2317,0.203375,-0.433684,0.023689
-0.0458355,-1.1554,-0.805101,0.105079,-0.546934,0.133355
-0.946154,-1.10567,0.977652,0.129589,-0.543005,0.260639
-2.35162,-0.815722,3.07856,0.498008,-0.320761,0.361221
-1.16565,-0.625867,3.42795,0.141046,0.277695,0.082104
1.82727,0.724825,1.33196,0.0951476,0.359489,0.171799
-1.22946,0.5471,-0.220103,-0.149502,0.231892,-0.0591698
-0.201048,0.513583,-0.0055516,-0.151019,0.423956,-0.24216
0.790095,0.407607,-0.315278,-0.133586,0.279986,-0.363037
-0.175311,-0.391818,-0.965463,0.142907,0.139585,-0.217427
-0.671072,-0.737887,-1.16274,0.59247,0.173956,-0.0295002
0.889875,0.0695647,-1.77328,0.0414742,-0.113789,-0.0592945
-0.102244,-0.816196,-1.71569,0.228421,-0.371215,0.219109
-1.09352,-0.631224,-1.43533,0.0713245,-0.457288,0.0863757
-0.331594,-0.537563,0.530725,-0.018093,-0.490037,0.0415524
-1.05544,-0.666133,2.4403,0.224666,-0.334887,0.152609
-1.81641,-0.64163,3.29526,0.619253,0.103055,0.168725
-0.555399,-0.51845,1.58966,-0.132147,0.427874,0.00903177
-0.287938,0.327016,-0.442731,0.00197065,0.252733,0.0768439
-0.864033,0.230806,-0.732746,-0.224984,0.254651,-0.129564
0.534539,0.522886,-0.47618,-0.0462998,0.166028,-0.197513
1.24799,0.448523,-0.542476,-0.141313,-0.000253558,-0.262913
0.0274403,-0.0694677,-0.409064,0.0993758,-0.112269,-0.0081346
-2.2546,0.419987,-0.0510995,0.0915437,-0.118481,0.0327384
0.522135,0.0143539,0.702364,-0.0177726,0.333398,-0.303975
4.01194,-0.143875,-0.308186,0.29134,-0.147039,0.0302346
-4.12087,-1.20801,-0.889468,-0.11741,-0.305384,0.152571
-2.99757,-1.14075,-1.03101,0.0209162,0.0268874,0.109882
0.418824,-0.372052,0.20979,-0.104319,-0.155675,-0.0180089
0.0628133,-0.331501,1.25313,0.03267,-0.0579558,0.0347328
-0.791861,-0.530619,1.24802,0.337356,0.15017,0.013978
-0.663115,0.0677324,-0.439251,-0.325852,-0.0709458,0.0333688
-1.96473,-0.437095,-0.142753,-0.168308,0.119043,0.0351966
0.0187748,0.530914,0.225941,-0.167249,0.146979,-0.105294
0.691087,0.848986,0.371705,-0.0775705,0.0657763,-0.188508
1.0528,0.89541,0.808685,0.0947813,0.219408,-0.402307
1.59908,0.22386,0.635586,0.245821,0.218761,-0.352026
1.21256,-0.99169,-0.102687,0.160971,0.222628,-0.100183
0.859568,-1.14486,-0.496205,0.146435,0.146905,0.0686674
-0.505183,-1.47078,-1.15202,-0.0113202,-0.0180783,0.415655
-0.633592,-0.745648,-1.30893,0.0415717,-0.0698692,0.515936
0.916806,0.377271,-0.504792,0.105064,-0.119745,0.485578
2.98785,1.4429,-0.472961,0.255572,0.0153551,0.30257
4.31816,1.74093,-1.11846,0.0955728,-0.135387,0.0405174
1.5307,0.851643,-1.41055,0.0924069,-0.487023,0.0470871
-0.562009,0.789794,0.188967,-0.0275046,-0.478334,-0.0652831
0.733339,0.728959,1.38981,-0.0588891,-0.255553,-0.199381
-0.0375739,-0.0254108,1.54353,0.0872048,-0.173938,0.00796485
-2.11135,-0.901412,1.21664,0.343195,0.101773,0.199728
-0.129812,-0.238859,0.392781,0.0563493,0.211684,0.0204192
0.819914,0.236561,0.23192,-0.142654,0.161892,0.0993431
0.539263,0.268069,-0.197785,-0.123862,0.175098,0.0298657
0.795477,0.39418,-0.661349,0.059424,0.132996,0.00765842
1.00523,0.213611,-1.20537,0.0381179,0.00636134,0.00430608
0.664976,0.24505,-1.08932,-0.0569548,-0.128897,-0.0368741
0.705873,0.491411,-0.686891,-0.0779313,-0.178706,-0.0921966
0.68557,0.830467,0.163457,-0.0773318,-0.125135,-0.150769
1.12717,0.809534,0.601174,-0.0168585,-0.0381027,-0.152683
0.960922,0.413099,0.454608,0.179928,0.0643853,-0.005463
0.711466,-0.0344359,-0.238985,0.144169,0.0667285,0.136219
0.113076,-0.314308,-0.499044,0.0879515,-0.0104296,0.264944
-0.623994,-0.0915224,-0.475469,-0.0488792,-0.00479674,0.208337
-0.393647,-1.47256,0.928665,0.0882113,0.17764,0.101723
-0.113993,-1.46484,1.18823,0.101445,0.0796291,0.0443277
-0.713669,-1.6111,1.59187,0.223953,-0.0019657,0.0929358
-0.285314,-1.96142,1.80516,0.216242,0.107194,0.15711
1.22088,-1.97635,3.6935,0.0794258,0.163405,0.299188
-1.59383,-1.21443,3.86287,0.229769,-0.222197,0.292494
-3.41207,-1.24292,4.49731,0.266844,-0.358866,0.36623
-1.76741,-1.24871,4.95226,0.406989,0.33491,0.395808
-3.23923,-0.168849,4.26021,0.447603,0.570032,0.423825
-1.85425,0.745182,3.4357,0.243138,0.79927,0.299655
-1.76211,0.818156,2.44618,0.13658,0.807731,0.184104
-0.562365,0.74288,0.846357,0.0538618,1.0914,-0.22748
2.98146,1.08124,-2.04341,-0.0753707,0.55465,-0.369115
0.26726,-1.93833,-3.07786,0.377225,-0.063818,-0.0153449
-1.51215,-1.43243,-3.481,0.234113,-0.267297,0.0439907
-0.21155,-0.183387,-1.52042,0.0315604,-0.488232,0.205382
0.27841,0.291691,0.367355,-0.0643831,-0.578035,0.192717
-0.264521,0.997237,2.87801,0.218621,-0.30543,0.127907
0.118121,0.751825,3.81165,0.371723,0.39734,-0.169491
2.25296,0.572077,0.905015,0.19296,0.296547,-0.0297354
-0.368039,-0.3425,-0.94835,-0.0922984,0.161373,-0.0871704
-1.20356,-0.578886,-1.48845,0.0307883,0.0564972,0.162272
-0.0663143,-0.827563,-0.873559,-0.0718731,-0.149033,0.111368
-3.25016,-0.985971,0.0130434,-0.0682147,-0.332624,0.150375
-3.17454,-1.12791,0.733314,0.213411,0.275627,0.0969577
0.65714,0.116074,0.284435,0.131394,-0.0452062,-0.13051
-0.801873,0.147608,0.582207,-0.299865,-0.00190574,-0.0997257
-0.76378,0.00104734,1.08547,-0.0886983,0.166842,-0.139032
-0.289592,0.192012,0.54003,-0.101766,0.289839,-0.209373
-0.0642641,0.0444222,-0.0746651,-0.0289532,0.292831,-0.116257
-0.283,-0.0682705,-0.472214,0.328527,0.307773,-0.0250207
1.58908,0.447818,-1.41199,-0.0485863,0.176911,-0.133748
0.292141,-0.751607,-1.87491,0.294594,-0.179628,0.115925
-1.44215,-0.916985,-2.51392,0.100974,-0.268591,0.0492101
-1.49201,-1.16342,-1.74216,-0.004233,-0.216436,0.083739
5.86174,-0.164157,-0.114162,-0.0709844,-0.099294,0.0634391
2.0246,0.80605,0.826784,0.0696995,-0.333655,0.29938
0.465994,0.845745,0.86129,0.39233,0.0544422,0.336238
-0.946701,0.0866855,-0.111365,-0.0574152,-0.244212,-0.00443852
-1.50188,-0.548571,-0.774967,-0.104694,-0.0981696,-0.04078
-2.79366,-1.33694,0.477529,-0.270963,0.391399,0.271945
-11.1638,-0.0365916,1.32991,0.358434,-0.134654,-0.170454
0.508299,0.564814,-0.947748,0.183125,1.56634,-0.449764
-0.141697,0.440646,-0.764535,0.15848,0.195118,0.0363632
-0.431984,0.194013,-0.820652,-0.0163689,-0.108158,-0.110814
-0.357349,-0.136809,-0.604539,0.202932,-0.271483,-0.116475
-0.744512,-0.447873,-0.284505,0.0247376,-0.142219,-0.10381
-0.223752,-0.72497,-0.305331,-0.160404,0.134917,0.0393884
-0.28625,-0.747867,-0.598171,-0.0831389,0.0952367,-0.0661019
-0.271663,-1.29388,-0.069968,-0.135347,-0.11309,-0.115167
-0.752285,-2.19799,0.710857,0.0678478,-0.0759755,0.0808203
0.675882,-1.26874,-0.554864,-0.665883,-0.20687,0.0227058
2.08066,-1.21182,0.226788,-0.283076,0.054247,0.0228814
5.26186,-1.44303,0.71352,-0.112564,0.120318,0.345819
2.05656,-0.395699,0.220337,0.206801,0.514799,0.597407
1.53485,1.44193,-1.66011,-0.287996,0.579749,0.105703
2.10596,1.995,-2.77915,0.321801,0.134252,-0.0862219
0.977624,1.25936,-3.06389,0.493097,-0.252804,0.0270202
1.45444,-0.231909,-1.05871,0.342306,-0.777232,-0.024296
-1.6146,-0.197568,1.36885,-0.081157,-0.805935,0.035357
-0.491129,0.129684,3.90422,0.114221,-0.0593419,-0.145257
2.70194,1.47991,2.84859,0.147515,0.327249,0.201776
-3.82444,1.95225,1.35732,0.59972,0.265676,-0.106871
1.25283,0.578551,-0.100976,-0.303097,0.714519,-0.299457
0.641405,-1.53663,-1.66337,0.260954,-0.0452296,-0.115949
-2.27782,-1.64226,-2.85639,0.0624547,-0.186941,0.0407767
-0.76472,-1.00038,-1.65395,-0.0303456,-0.258335,0.082804
0.141398,-0.381252,0.323123,0.111702,-0.441524,0.210503
-0.921954,-0.238792,1.91769,0.284506,-0.288726,0.255812
-0.258771,0.354531,2.47191,-0.0575449,0.16985,-0.0411459
0.934331,0.727319,1.14695,0.120391,0.0571644,0.0760713
-1.43238,0.189817,0.623379,-0.127183,0.297526,-0.167112
-0.0713177,0.360373,-0.213501,-0.195145,0.302724,-0.209296
0.165759,0.514904,-0.316185,-0.043829,0.242809,-0.248738
0.394443,0.204572,-0.533418,0.236189,0.151142,-0.172458
0.0666046,-0.640079,-1.11361,-0.0456506,0.121241,-0.133752
0.486788,-0.979477,-1.37695,0.29824,-0.108832,0.110545
-0.591851,-0.863727,-1.62321,0.00320089,-0.280614,0.176
-0.211796,-0.517131,-1.17528,0.0203562,-0.399629,0.249074
-0.40265,-0.126834,0.193359,0.0211443,-0.473915,0.201539
-0.488703,0.31129,2.69037,0.245989,-0.251961,0.145795
0.324914,0.201921,2.80631,0.0640998,0.290966,-0.182445
-0.697176,0.00952165,0.462759,0.136458,-0.0130227,0.0413997
-3.77711,-0.324316,0.0334905,-0.183993,0.17302,0.030806
1.78674,0.303109,0.829155,-0.252465,0.463224,-0.0121498
0.653675,0.181149,0.233782,-0.00627303,0.256339,-0.191682
0.0768587,-0.0414781,-0.878122,0.351987,0.379132,-0.107154
1.20179,-0.252982,-1.6119,-0.0118256,0.242324,-0.0510336
0.944009,-0.864441,-1.36744,0.189772,-0.121161,0.279327
-0.210339,-0.552442,-1.81932,-0.037513,-0.214267,0.425517
0.112513,0.00576562,-1.33452,0.101388,-0.355114,0.423161
0.709279,0.8049,0.210712,0.0874779,-0.350673,0.337908
1.96566,1.62843,1.9431,0.203678,-0.193182,0.171228
3.57366,1.80971,1.2385,-0.0532634,0.0609107,-0.110891
0.476215,0.747039,0.619431,0.332349,-0.0220398,-0.197936
2.02883,0.585266,1.01948,0.0670264,0.388417,-0.138119
2.82755,0.246104,0.445573,-0.268209,0.144839,-0.0861591
-0.105701,-1.06307,0.0445494,-0.186793,0.196405,0.0194209
-1.60412,-0.926119,-1.08916,0.00338328,0.193685,0.347312
-0.72931,0.0582693,-0.99504,0.10536,0.296854,0.265004
1.94512,1.4232,-0.582526,-0.0478032,0.233576,0.363133
2.85248,2.05756,-0.893092,0.290953,-0.115918,0.581362
3.24518,1.70267,-1.47483,0.193689,-0.175316,0.264187
3.21913,1.72311,-2.62471,0.347719,0.186069,0.298989
2.08231,2.14782,-3.36254,0.0824829,0.267861,0.280067
1.70536,1.95201,-1.88074,0.217252,-0.135301,0.0759637
-0.781843,0.534116,-0.735486,0.576787,-0.276782,0.150008
-2.01253,-0.95029,-0.428099,0.190108,-0.059931,-0.252233
-1.6709,-0.323727,-0.550547,-0.229947,-0.334289,0.118298
-1.52009,0.194324,-0.502055,0.140749,-0.22087,-0.457631
-2.09241,0.111277,0.0166735,-0.0673721,-0.458246,0.060762
-1.41472,-0.226417,0.229748,-0.00487849,0.286837,-0.0900651
1.55118,-1.0976,-0.661679,0.0117214,-0.0941525,-0.0923092
1.01174,-1.68742,0.233348,-0.031262,0.0218204,-0.301925
-0.557577,0.288624,0.084309,0.020211,0.417232,0.492815
1.58717,-0.489941,0.490575,-0.0397964,-0.420274,-0.0157998
0.979029,-2.11158,1.39311,0.225592,-0.026252,-0.286757
-0.106284,0.273323,-0.529329,-0.10005,0.45934,0.462811
-0.0410165,0.187911,-0.476179,-0.135922,-0.0420628,-0.0620463
2.08345,-0.487183,0.449678,-0.00478709,-0.261509,-0.312106
1.32772,-1.30975,3.14681,0.520785,-0.171959,-0.0297151
-0.568454,-1.09997,1.95344,0.31529,-0.00139898,0.111048
-2.95203,-1.36083,0.189678,-0.135437,0.177034,0.192585
-0.155702,-0.577495,0.370295,-0.392725,0.291193,0.0519947
0.793756,-0.0370016,0.158791,-0.26882,0.0822533,0.0434814
-0.998291,0.208351,-0.196755,-0.137344,0.358964,0.00517261
1.15994,1.04272,0.18201,0.0117406,0.369039,0.0175629
3.04521,1.06019,0.601376,0.255133,0.270229,0.00788093
5.25821,0.31999,-0.232818,0.369096,0.0941376,0.235915
-0.155817,-1.0864,-0.493987,0.158241,-0.695638,0.384232
1.264,-0.406038,0.0731942,-0.100774,-0.226522,0.107308
0.0415875,0.308745,0.853567,-0.202995,-0.052981,0.0297474
0.128086,0.26508,0.355207,0.0124761,0.347698,-0.113965
1.00164,0.145329,-0.552132,0.0347657,0.341997,-0.134165
-0.660383,0.0680462,-0.873046,-0.070048,-0.193647,-0.059812
0.225256,-0.0117329,-0.297592,-0.0929424,-0.141014,0.0790691
-2.61965,-0.880969,-0.754562,0.0994323,-0.0950672,0.106392
-7.51001,-0.199906,-1.29656,-0.0990525,-0.301188,0.0135695
-2.50622,0.463349,0.809903,0.127148,-0.332618,-0.635122
7.95622,-1.47524,4.22833,-0.105494,0.0351496,-0.240792
0.614691,0.969521,4.51193,0.658539,-0.468834,-0.0647061
-15.2622,-0.34679,-0.68142,0.181653,2.2353,-0.36425
10.7033,3.83802,2.36643,-0.459898,0.595812,0.795419
1.93083,-0.315055,-0.142862,0.176268,-0.625214,-0.486897
-0.444184,-1.06898,-0.431074,-0.126408,-0.0420466,-0.155009
-1.50753,-3.10198,0.826075,0.0866619,-0.0910402,0.278762
-4.46689,-1.03068,-1.0383,0.156656,0.357575,0.391781
4.48722,1.99961,-1.55758,0.442072,0.0294403,0.252114
1.01041,0.810292,-1.46139,0.00645441,-0.420857,0.186435
-3.41209,0.0110851,-0.42889,-0.0917016,-0.612458,0.180786
-1.60786,0.0527613,1.58201,-0.0648709,0.149031,-0.505541
-0.522028,0.159212,1.22959,-0.178563,-0.020928,-0.402713
1.55522,0.192251,0.253111,-0.11725,0.371777,0.00419426
-0.55162,0.0152087,-0.498339,-0.118301,0.214524,-0.0922925
0.245649,-0.0420541,0.086252,0.459766,0.460299,-0.0637801
2.31964,0.162302,-1.27064,0.0841039,-0.0647168,-0.0704296
-0.271163,-1.1171,-1.60541,0.252761,-0.368919,0.224076
-1.53649,-0.518343,-1.21977,-0.040587,-0.480878,0.122958
0.238626,-0.0406761,0.871529,-0.0379853,-0.408706,0.0951328
-0.24329,-0.000971291,2.59821,0.234759,-0.319804,0.111615
-1.76247,0.0766989,2.98628,0.502079,0.0689943,-0.0121303
-1.30894,-0.921214,1.23151,0.00473303,0.404357,-0.0829216
-0.863478,0.0338331,-0.978293,-0.0406656,0.218452,0.236564
-1.2901,-0.176372,-1.02981,-0.316598,-0.0201439,0.159458
-1.85077,0.173285,0.150731,-0.339835,0.021038,0.00542033
-1.53743,0.670957,0.832483,0.0702828,0.164107,-0.205467
-0.703321,0.563601,0.276436,0.194319,0.273376,-0.557106
1.83535,-0.258389,0.455813,0.531158,0.463959,-0.286428
1.49888,-0.407325,-0.560576,-0.286656,-0.0248905,-0.19875
-2.19726,-1.63933,-1.14553,0.254312,-0.0689892,0.188765
-2.64777,-1.09334,-1.87409,-0.0184211,-0.0875534,0.131818
0.570689,-0.296521,-1.12784,0.0103992,-0.238385,0.176472
1.01065,0.104302,0.42366,-0.0541307,-0.366119,0.163678
-0.0517072,0.572181,1.79922,0.135274,-0.211446,0.052608
0.745401,0.315592,2.01863,0.474761,0.205105,-0.201894
-0.09453,0.0577597,0.208272,-0.187838,-0.0546132,-0.13043
-2.68365,-0.552116,-0.260105,-0.0774316,0.209811,-0.0452225
0.0203568,-0.0131839,0.00508725,-0.237905,0.242545,-0.0320655
1.24968,0.187352,-0.237352,-0.130109,0.10376,-0.250132
0.226942,0.292215,-0.577354,0.124654,0.0712228,-0.195783
0.660188,0.128669,-0.453937,0.280229,0.108487,0.0517775
1.2703,-0.65924,-1.16668,0.116262,-0.0731668,0.0743814
0.672592,-0.0212898,-0.682635,0.0525026,-0.244092,0.0644385
-1.35205,-0.228967,0.0195124,0.0564454,-0.235664,0.338157
0.163769,-0.434359,0.505184,-0.0848665,-0.219414,0.237773
-2.58244,-0.262713,0.958565,-0.00193983,-0.277302,0.0991825
-1.87377,-0.335977,1.51729,0.166766,0.0976087,0.0441355
-0.898293,-0.140796,1.76755,0.218298,0.185238,-0.00082022
-2.12596,-0.623793,0.529892,0.207858,0.290431,0.143206
-1.58077,-0.265493,-0.808086,-0.246626,0.158458,0.203647
-2.77444,-0.609965,-1.00585,-0.0255163,0.0829533,0.290321
-1.09474,-0.157317,-0.43408,-0.224461,0.0354137,-0.0574166
-1.15611,0.169096,0.498466,-0.125592,-0.0649844,-0.190737
-1.21154,0.359418,1.18938,0.0720917,0.04688,-0.199677
-0.934331,0.0640394,1.60262,0.763933,0.424962,-0.14201
1.02978,0.263233,-0.311323,-0.453853,0.334369,-0.320105
0.360889,-0.802893,-1.24288,0.224229,0.12954,0.021274
-1.17689,-1.20677,-1.96081,-0.0357649,-0.0637806,0.0761066
-0.493747,-0.498196,-1.46495,-0.00679845,-0.182641,0.160829
0.485303,-0.130151,-0.0981886,-0.0702134,-0.292464,0.223296
-0.395982,0.175053,0.568585,0.172664,-0.278186,0.199269
-0.639247,0.22476,1.39967,0.503776,-0.0982746,0.0868592
0.548841,0.508107,0.847761,-0.330904,-0.149711,-0.197975
-2.01453,-0.178147,1.30525,-0.00175405,-0.0347525,0.0409121
-1.66712,-0.338153,0.973164,-0.0375401,0.385097,-0.105535
0.218398,0.203436,-0.0383128,-0.209233,0.255548,-0.0799232
-0.587521,0.208647,-0.461265,-0.0731177,0.225921,-0.0660854
-0.896252,0.585353,-0.806767,0.388272,0.110665,0.0170091
0.497493,0.126573,-1.11163,-0.0523608,0.1238,-0.217366
1.80007,-0.360083,-1.51495,0.345551,-0.23849,-0.0463423
-1.30895,-1.17581,-1.4198,0.079711,-0.437086,0.0806968
-0.824267,-0.845076,-0.222397,-0.050517,-0.333651,0.0331137
-0.167215,-0.67733,1.30472,0.032121,-0.359945,0.188462
-1.8389,-0.780216,2.22013,0.232092,-0.120799,0.283254
-1.26845,-0.683337,2.27933,0.586155,0.23846,0.352802
-0.38101,-0.0335231,0.418277,-0.295617,0.309852,-0.0588942
-0.164261,0.337767,-0.964825,-0.011759,0.0665465,-0.00924492
-0.682096,0.200249,-0.417758,-0.246338,0.0753479,-0.231451
-0.478591,0.105661,-0.0541792,-0.0838943,0.0139197,-0.182655
-0.431684,0.136918,0.125292,-0.195113,0.00925967,-0.18293
-1.18131,0.60347,0.878061,0.0843566,0.0253622,-0.0961196
0.839607,-0.0347107,0.876943,0.465245,0.48582,-0.180254
1.82726,-0.0253324,-1.27341,0.0617599,0.135542,-0.147809
-0.51627,-1.12534,-2.14584,0.121214,-0.146619,0.0942155
-0.736621,-0.73817,-1.96754,0.10666,-0.245922,0.255038
-0.101142,-0.457272,-0.494659,-0.0413002,-0.398741,0.250423
0.573716,-0.356025,0.274357,0.164256,-0.370337,0.0609784
-0.379302,0.184278,1.57507,0.191932,-0.369335,0.0191207
-0.930319,-0.0336283,3.17281,0.497774,0.152748,-0.14481
-0.806964,-0.147986,1.36086,-0.0358385,0.24396,-0.0436522
-1.10017,-0.375978,-0.253185,-0.202537,0.26716,0.0703824
-1.06324,0.135921,-0.716864,-0.0887223,0.270599,0.0490181
0.139547,0.63783,-1.50306,-0.124277,0.0644546,0.12216
2.08639,0.512378,-0.930818,0.00438446,0.0617303,-0.20425
-3.01135,0.215256,-0.784508,0.0729403,-0.53925,-0.485013
-1.5509,-0.851811,0.498265,0.00529045,-0.111955,-0.189435
-0.340554,-0.63006,2.60406,0.283849,0.345566,-0.0302746
2.16706,0.0238688,0.131483,-0.341076,0.461701,0.10568
-0.946457,-0.574892,-2.14888,0.173423,0.0247397,0.238404
-0.198111,0.126349,-2.1517,0.07898,-0.0994224,0.106231
0.848258,0.17777,-1.61496,0.137872,-0.427989,-0.042034
0.54916,0.392674,0.198893,0.0185387,-0.509389,-0.0159599
-0.327368,0.177929,2.24201,0.166735,-0.432901,0.0453585
-2.27754,-0.728023,3.16586,0.510725,0.0890197,-0.0299839
-1.70713,-0.854022,0.387643,0.150735,0.471098,-0.0867316
-1.6007,-0.561543,-0.906675,-0.227869,0.0906523,0.114484
-0.949506,-0.0666815,0.146042,-0.318983,0.160974,0.151807
-0.493602,0.59009,0.242857,-0.136846,0.132335,0.0868841
0.0225156,0.89421,0.284488,0.107789,0.256804,-0.140096
1.11308,0.677805,0.396817,0.57193,0.377335,-0.444816
2.40475,0.129582,-0.399333,-0.287382,0.221781,-0.595448
-1.50563,-1.65539,-1.48047,0.206862,0.0509325,0.0866755
-1.39462,-1.39807,-2.71791,0.237189,-0.194274,0.323637
0.0408933,-0.467253,-1.86488,0.0651826,-0.413811,0.320957
0.456675,0.0485864,0.0875223,0.0180587,-0.560854,0.282169
-1.38816,-0.092418,2.34237,0.197458,-0.457644,0.204872
-3.29256,-0.507567,3.56985,0.609172,0.100862,0.00527722
-0.436584,-0.310417,1.48404,-0.0877216,0.363632,-0.24461
-1.78361,-0.499175,-0.140622,-0.0718652,0.268275,0.0701972
-0.879521,0.00792917,0.0827819,-0.233812,0.41674,0.0469794
0.271787,0.341028,-0.744182,-0.207071,0.221057,0.0239642
0.251787,0.870862,-0.750898,0.0628873,0.178073,-0.18744
0.723466,0.531393,-0.421055,0.0807799,-0.0425654,-0.207955
1.77581,0.291602,0.96274,0.529592,0.231113,-0.350053
1.05958,-0.696077,-0.943925,0.0985481,-0.0886039,-0.126819
-1.81696,-1.71262,-2.57749,0.224256,-0.185689,0.179505
-0.0511321,-1.2038,-2.22052,0.194917,-0.34363,0.190036
-0.97008,-1.05412,-0.710939,0.287134,-0.582497,0.222447
-1.44393,-1.01104,1.11619,0.115229,-0.522449,0.0860061
-1.32325,-1.12586,3.31091,0.330468,-0.33856,-0.0487444
-2.17393,-1.81894,3.6616,0.432727,0.358346,0.338534
-4.12906,-1.68781,2.06038,0.562939,0.376186,0.544318
-1.49021,-0.622686,0.826086,-0.320332,0.473786,0.473252
0.437552,0.630076,-0.311647,-0.135902,0.347454,0.195615
0.0514123,0.686982,-0.922477,-0.0502838,0.310811,-0.31912
1.66405,-0.375578,-1.27282,0.033012,-0.139889,-0.589781
-1.0974,-0.643116,-0.30166,-0.138883,-0.146718,-0.0581828
-0.781559,-0.337585,0.459345,-0.177272,-0.0533102,0.106745
-0.895495,0.415669,1.11647,-0.0877807,0.119241,0.060199
-0.852061,1.41858,0.449831,0.508707,0.163972,0.0851425
-0.961029,0.303949,-1.10115,0.0363331,-0.071622,0.0783246
-1.40647,0.255941,-0.0383304,-0.194061,0.0242994,-0.0803893
1.09327,0.348234,0.676675,-0.182924,0.131146,-0.205691
-0.601214,-0.375957,-0.0258746,-0.00978971,-0.00383076,0.131122
-0.646801,-0.274258,-0.531013,-0.0118464,0.0635449,-0.00502276
0.70879,-0.230793,-0.134098,-0.0909705,-0.0293156,0.0927829
-0.510247,-0.134221,0.197272,-0.0687989,-0.0688408,0.130082
-0.147123,-0.0966862,1.04887,0.210358,0.143494,0.0462177
1.40868,0.00618462,-0.535819,0.0709502,0.134517,-0.0788844
-1.25703,-0.717924,-2.22177,0.102974,-0.287835,0.0331596
-1.22343,-0.806564,-1.58428,0.0748878,-0.244021,-0.152362
-0.818338,-0.729377,0.580345,-0.202241,-0.475775,-0.0620806
-0.8972,-0.474593,2.69286,-0.123853,-0.165047,-0.0285481
-0.745796,-0.306506,3.58556,0.314886,0.322903,0.256076
1.5876,1.30057,1.82628,0.217388,0.431727,0.0852462
1.2453,0.778262,-0.131155,0.259798,0.786649,-0.325029
9.16349,0.478948,-1.10497,-0.397924,1.13752,0.179536
4.32636,0.0613464,1.11588,-1.03557,-1.06948,1.32873
-10.5003,1.32777,1.15259,0.302755,-1.10769,0.178084
-7.26228,-6.04789,-4.60089,3.35528,-0.227228,-0.830486
-3.35647,-7.60499,-5.76535,0.290563,0.00135165,0.16828
-4.51338,-3.80214,-6.24629,1.72519,-0.118955,0.999408
-0.932918,1.82213,-7.04825,2.87518,0.679855,0.735912
10.5544,1.48183,-9.14635,3.56021,0.649636,0.498873
1.17214,4.03736,1.0612,1.2611,-6.30934,2.34294
-2.55284,8.51559,9.39378,3.9966,0.12372,-0.299917
3.31008,6.33962,8.24707,3.91119,1.56809,1.96254
-3.0828,6.88796,3.2374,2.05649,0.475299,0.803587
-0.664267,4.61609,5.01665,1.59311,2.44291,-1.50481
1.55594,-2.72034,-2.57008,3.24861,0.412855,-1.79212
-1.51121,-5.2447,-5.83144,2.33005,0.716827,-0.450077
1.91417,-3.94586,-5.63045,1.77719,-0.236283,1.02771
-5.13428,-3.93028,-8.32378,2.67619,-0.118583,1.28236
2.41523,0.861528,-10.6483,4.25145,1.05955,0.650804
4.70207,-2.4393,-6.03365,1.78587,-4.11412,0.715602
-1.83539,3.33147,9.02941,1.86714,-2.71642,1.13344
1.77236,8.1806,10.8994,4.74079,2.87503,-0.545412
2.19862,8.67181,4.27346,2.85583,0.24815,1.98542
-4.30325,6.73544,4.06721,1.92098,0.668725,0.22649
-0.473415,4.23719,2.22155,3.487,1.69916,-2.93988
-1.75046,-5.81114,-4.27407,3.9008,0.250043,-0.597297
1.28795,-4.99865,-4.41755,1.58427,0.313016,0.510413
5.86797,-7.17784,-3.07422,2.39348,0.254484,1.93223
0.323712,-7.36228,-5.26593,3.10303,1.43754,1.24985
1.32376,-7.69021,-7.27409,2.83492,-0.360408,0.784816
0.408468,7.16672,3.50189,2.26862,-4.6077,3.18849
-2.3308,14.4593,11.4225,7.95014,1.76376,-0.111821
-5.94297,8.92939,3.88658,3.55227,2.16486,1.84298
-4.01968,5.49505,6.51879,2.11666,1.78385,-0.847444
-0.0224441,-0.254712,0.531097,2.97503,3.14431,-3.40675
-6.10253,-5.69342,-8.47197,4.39973,0.850485,-0.711501
8.02837,-6.31965,-6.78882,2.31282,0.376648,1.87443
5.07588,-6.38612,-3.92746,2.43912,2.2755,1.89461
4.37663,-4.82166,-5.71705,2.66065,1.62915,1.41559
2.39256,0.681499,0.00732328,1.84758,-3.20225,2.59814
-5.20485,10.1426,7.11674,3.57125,-0.187187,1.52691
-9.2665,11.1946,9.52543,5.13853,4.00018,3.10614
-7.15184,5.55994,6.22884,3.04143,2.74981,-0.287727
3.45232,-2.9342,-1.87565,2.32703,1.6619,-5.77255
5.49989,-4.28919,-5.55069,4.25963,2.93695,-0.382274
8.14222,-5.81167,-5.79269,2.09856,1.39238,1.92279
4.88717,-6.72067,-5.34169,2.87557,2.60102,1.52682
0.325078,-6.36362,-6.5524,2.91382,1.24878,1.05309
0.733669,0.076361,2.03829,2.85655,-4.56534,2.21197
-3.192,11.0697,9.72314,3.88868,-0.214314,0.583949
-2.32348,10.5004,7.12307,3.35691,2.51859,1.25939
-3.85042,5.01586,4.39845,1.67717,1.99683,0.0479618
0.627798,3.4738,2.9155,0.210933,2.86532,-1.43363
2.66855,-2.5048,-3.44344,4.35343,0.263756,-2.42075
1.06689,-6.21503,-6.17236,1.83868,1.04875,-0.562615
3.90947,-6.27336,-5.30979,1.70749,0.71591,1.64497
3.15314,-5.14555,-6.9835,2.77789,2.04735,1.52292
0.267951,-5.18897,-8.0144,3.28085,1.05878,0.799931
-1.9962,2.35801,4.49849,2.17641,-5.88423,2.74214
0.0602904,10.1743,10.3982,5.12131,1.17494,-0.0256418
-3.37968,7.46392,6.27977,3.05028,2.24964,1.40818
-2.7914,7.09696,4.37397,1.85198,1.36042,0.540296
-2.13764,3.8267,3.1657,0.771439,2.64588,-2.08337
0.196358,-2.04979,-2.09551,3.7709,0.450417,-1.22725
3.94388,-5.38215,-6.93948,2.42755,1.00446,0.0162978
2.03574,-7.19859,-6.2115,2.12817,1.24677,2.13291
1.37186,-6.09171,-8.8175,2.98262,1.2184,1.4156
0.534939,-4.32046,-6.03064,3.16681,0.010576,0.683842
1.48868,2.518,2.81594,1.56269,-6.11186,1.30181
-0.0857179,6.01692,9.16279,4.55963,-0.256722,0.0477147
-2.57111,5.66127,8.73375,4.12651,1.21188,2.01841
-2.23952,6.71586,9.0316,3.27408,1.49566,1.61915
-4.12385,5.30398,5.33045,3.0216,2.30562,-0.751933
5.94377,-1.24779,0.871859,1.83816,1.18919,-0.297791
-0.465369,1.86306,1.28606,-0.448406,0.0581214,1.40438
-0.482981,2.06117,2.77733,-0.442211,-0.287613,-0.369162
-1.28206,1.53969,3.54486,-0.0629982,0.62889,-0.357851
-0.475361,0.781473,0.959676,0.925694,2.31108,-0.949722
-0.913738,-3.45413,-6.03955,2.97208,0.359977,-0.594857
-1.4006,-4.62462,-10.376,3.47199,-0.121849,0.120693
-3.74737,-0.848995,-10.4456,3.52458,0.0618517,0.475015
2.13944,1.41806,-7.10572,3.33473,-0.420282,0.370834
2.43197,-0.919082,-4.48352,2.35506,-2.40938,0.49136
-1.45652,1.98221,3.01887,0.000983417,-2.82872,-0.088795
-2.90501,1.31182,6.91977,3.39539,-1.1446,1.93304
-3.5395,1.46928,6.28598,2.07691,-0.000935555,0.760213
-0.513545,1.92356,8.36823,2.26627,0.489403,-0.06855
-7.35547,-2.33813,5.67134,3.61305,2.06122,1.01673
0.316808,-0.288445,-4.56178,0.539955,3.91796,0.235483
-0.799792,0.257824,-10.3028,3.24291,1.2072,0.846807
0.389267,0.453786,-8.90315,3.82105,-0.427169,0.171924
3.57229,0.716,-6.01774,3.56223,-1.00441,0.253365
-1.74765,-0.786404,-3.7222,-0.224092,-3.90219,0.674938
-1.40174,-0.790555,5.65689,0.480106,-2.06987,0.0463638
-2.85915,0.762378,7.33272,4.06992,-0.574155,1.40084
-2.17936,0.940982,7.13751,2.08961,0.0591311,0.626163
1.05747,2.2009,6.99508,1.28188,0.687278,-0.107189
-12.2366,-3.37308,0.586785,4.19063,3.59777,-4.26903
0.384946,-1.6346,-1.5996,1.39759,2.179,0.878612
-1.52937,-0.299987,-6.46191,0.935247,0.967801,0.133047
-0.939375,-1.00658,-8.94246,2.25723,0.642367,-0.46593
2.88975,-1.62925,-6.62158,3.34343,-0.274546,0.549187
1.31029,-0.439264,-6.07962,2.40095,-1.3668,0.849597
0.496313,4.99805,-0.855816,1.56375,-1.574,0.961437
-2.51361,4.59629,6.32938,1.37649,0.0829165,1.05435
-4.0384,2.92884,6.29282,1.48725,1.06856,-0.340132
-6.58516,1.82605,10.4563,3.96317,0.509851,-0.244336
7.40266,3.79303,3.30527,1.54276,0.47969,-0.216078
-3.51553,0.672125,0.0322738,0.242115,0.736885,-0.903402
1.16765,-0.167343,-0.914901,0.324468,0.74929,-0.98091
-1.39331,-2.32202,-3.30598,0.796487,0.540725,-0.54465
1.81241,-2.22937,-3.91428,0.144703,0.265124,0.4756
0.64539,-3.298,-4.04527,0.280048,0.0434883,0.148292
4.5759,-3.86258,-2.05989,0.375458,-0.434591,0.93442
-0.291829,-0.950056,0.446979,0.000498652,-0.446808,0.288024
-0.161409,1.45724,2.08368,0.885893,-0.100265,0.475788
-0.550692,3.70934,2.70976,0.988573,-0.237147,0.456771
4.01375,6.34051,1.72895,0.843275,0.434789,-0.59933
-3.08303,3.499,-0.771885,0.5749,-0.367936,-0.170165
-4.90014,-0.375569,-2.27504,0.345932,0.771173,-0.661262
-0.523259,-1.90566,-3.06609,-0.0601922,0.21493,-0.628468
1.52267,-1.4569,-2.72371,-0.431252,0.16569,0.00182509
5.03122,-3.83665,-4.14182,0.193479,-0.0081594,0.345773
-0.187818,-3.04472,-0.680151,-0.2644,-0.855461,0.94976
-1.12855,-0.324485,2.29996,0.808345,-0.187174,-0.011522
1.01711,3.1525,4.43624,1.19696,-0.229721,0.0448627
5.00911,5.23946,2.9258,0.600841,0.360384,-0.0948769
-1.53269,3.34315,-0.0406626,0.527041,-0.360552,0.282324
-5.14094,0.0995784,-2.49591,0.19132,0.505868,-0.426967
-2.07525,-1.90053,-2.63494,0.167053,0.931343,-0.802042
1.75826,-2.58689,-3.13754,-0.330295,0.43429,-0.0977421
2.77485,-3.05561,-3.79206,-0.180532,-0.26462,0.419706
-1.38141,-2.46888,-2.3733,-0.327813,-0.751137,0.797728
-0.884129,-0.0750271,-0.323783,0.49358,-0.287911,-0.0810388
-0.148612,0.781835,3.74954,0.99749,-0.290617,0.0293012
1.72269,3.47814,5.86849,1.30623,0.141235,-0.21898
4.82741,4.00238,4.01227,0.386955,0.193449,0.522054
-2.7761,1.87319,-1.86176,0.0744186,-0.0279917,0.0238634
-4.6827,0.0724196,-1.94698,-0.1162,1.33574,-0.600215
-0.674978,-3.75694,-4.39449,-0.081392,0.369484,-0.714341
3.55829,-2.55717,-3.0765,-0.245894,-0.224067,0.481767
-2.08846,-2.95048,-1.36314,0.276832,-1.20893,0.774985
-1.44403,0.867436,4.49419,1.00753,0.219091,-0.0531477
2.62667,2.97374,4.91674,0.455359,-0.663396,0.789935
-7.83338,-0.288766,2.7223,1.06385,1.15496,0.35402
-4.72142,-1.40649,0.797695,-0.019927,0.548504,0.282544
-3.42879,-0.831611,0.240009,-0.0658164,0.258632,0.680184
-3.55756,-0.542295,1.3093,0.0505058,0.24126,0.722412
-0.973655,0.500841,3.3615,0.452828,0.968014,0.255081
3.24043,1.53401,0.418455,-0.123795,1.37677,-0.247011
4.66865,0.630921,-2.27565,0.383432,0.911853,-0.0389566
1.48327,-1.56673,-3.24455,0.671762,0.0562138,0.189625
-0.522126,-1.12522,-3.303,0.317713,-0.170837,0.329149
2.04922,-0.423778,-1.18239,0.187451,-0.292343,0.449541
1.02779,-0.627151,-0.0288395,0.476119,-0.39304,0.971982
2.77108,3.07356,0.370387,-0.10625,-0.146062,0.463602
4.09224,4.16239,-0.0943641,0.355576,-0.900765,0.402055
-0.847806,0.824353,2.10551,0.465761,-1.44513,-0.480311
2.2886,0.543092,2.05604,0.447859,-0.358038,-1.06443
-1.33231,-1.51344,2.18831,0.167858,0.380617,-0.279364
-2.95558,-2.98171,1.16711,0.0755761,1.2747,0.501942
1.32858,-0.211777,-3.04236,0.277152,1.0046,0.581703
1.5349,1.26603,-5.73405,1.06929,0.512705,0.961844
-0.14293,1.48007,-6.23,1.35579,-0.352937,0.605007
2.10978,2.32775,-4.30919,0.991675,-0.641515,0.373574
4.40431,1.64346,-1.84942,0.63641,-0.796673,0.261168
0.0136262,2.27451,0.990285,0.419221,-0.946188,0.496666
-1.31733,2.3789,4.52012,0.652738,-0.455452,0.0755094
-2.51121,1.67493,5.2115,0.570182,-0.216819,0.341209
-7.39486,-0.525092,3.37723,0.904829,1.03309,0.124112
4.10141,1.03188,1.36303,-0.202157,0.995389,0.0971076
1.04994,-0.295252,-0.808739,-0.123834,0.522178,-0.367422
-1.01019,-0.765381,-2.98877,0.0375168,0.666107,-0.116889
1.55624,0.320453,-2.79388,0.494927,0.176918,0.169489
3.03474,0.947886,-1.31795,0.216385,-0.0215225,0.361254
4.91583,1.01375,-0.710867,0.111102,0.00376526,0.455553
0.360921,-0.0553835,-0.770138,0.0670168,-0.195054,0.603112
-3.7861,-0.511835,-0.918398,0.24872,-0.283127,0.439561
-2.08109,0.080942,-0.225642,0.108614,-0.225394,-0.0136682
2.88042,1.11249,1.72548,0.216187,-0.188355,-0.102812
1.01836,0.739815,3.43685,0.302075,-0.0424685,-0.100678
-2.27159,-0.273659,2.15965,-0.130013,0.205426,-0.0669088
-2.64038,-0.667611,-0.319043,-0.0993262,0.466151,0.0587602
-0.294815,0.368992,-0.883257,-0.159043,0.425728,0.0488424
2.34747,1.01586,-0.614721,-0.0769122,0.331833,-0.0548819
2.47327,0.27377,-1.60523,0.115503,0.0163862,-0.11976
0.362989,-0.135239,-1.84234,0.0173053,-0.233197,0.0235119
0.197422,0.179436,-0.336345,-0.0724114,-0.226626,0.109006
0.216003,0.367135,1.32822,0.309896,0.00388762,0.0376343
0.553693,-0.231914,-0.234047,0.174601,0.14952,0.151408
0.066304,-0.242714,-1.73377,-0.0132794,0.0860347,0.132455
1.45366,0.112091,-1.04172,0.0734088,-0.187348,0.161862
1.00422,0.0371491,-0.111236,0.0766018,-0.262724,0.196126
0.1533,0.119266,0.665014,0.0564095,-0.276893,0.103369
-0.211488,0.319642,1.4733,0.19449,-0.241269,0.0431106
-1.49002,0.135906,2.74971,0.488773,0.0521839,-0.062696
-1.50124,-0.41923,1.10251,-0.0872763,0.223608,-0.0242478
0.180273,-0.119898,0.742527,-0.111646,0.414304,-0.0248861
0.662435,-0.0671878,-0.0605538,-0.18118,0.390179,-0.0767039
0.971785,-0.134339,-1.06437,-0.146122,0.315636,-0.126513
0.806267,-0.30049,-1.46672,-0.154422,0.0863882,-0.0438087
-0.426612,-0.0857957,-0.787851,-0.071682,0.000988215,0.153396
0.736987,0.374024,0.606781,0.484606,0.200047,0.270581
5.93847,1.6993,-2.2383,0.258162,0.154576,0.879403
2.00222,1.34547,-2.25181,0.150182,-0.290374,0.574503
-0.766197,0.156996,-0.757573,0.0786727,-0.417688,0.102256
-0.325079,0.227955,0.304586,0.165625,-0.231526,-0.324055
0.458598,-0.583703,1.35666,0.289991,-0.345264,-0.101018
-2.5056,-1.75807,2.89388,0.68801,0.0115585,0.296063
-0.178508,-0.621784,1.90584,-0.238066,0.476141,0.223621
-0.18682,0.161823,-0.801378,-0.130876,0.293779,0.354829
-0.0815201,0.648404,-1.05416,-0.252416,0.0880192,0.109656
0.519507,0.792469,-0.875479,-0.0148896,0.0778001,-0.212679
-0.5993,-0.144297,-1.32982,0.0396952,-0.139422,-0.466702
-0.443505,0.198538,-0.0749649,-0.106741,-0.20739,-0.113779
0.100229,-0.181019,1.79504,0.239943,-0.089454,0.133671
1.71932,0.106432,1.3334,0.119346,0.476825,0.117539
2.09162,0.48107,-1.12186,-0.0298757,0.432235,0.167646
1.18259,0.120226,-2.00547,0.0634907,0.0706788,0.258806
0.814263,-0.032126,-1.93534,0.211801,-0.146203,0.282605
0.975149,0.065121,-1.23233,0.182939,-0.317665,0.31621
0.646296,0.229071,-0.469615,0.261534,-0.320822,0.311513
-1.44591,0.531703,0.646735,0.293694,-0.451954,0.33007
-0.366456,0.596868,1.72628,-0.332131,-0.155271,-0.195226
-0.500874,0.594786,1.69908,0.112325,0.172474,0.022279
1.29018,0.0877395,0.842561,0.164073,0.305921,-0.102007
0.0921869,-0.52487,-0.587537,-0.058841,0.175123,-0.298208
0.646797,-0.46839,-1.03564,-0.021235,-0.0610716,0.00387752
1.0204,-0.241874,-0.23117,-0.102909,-0.0540284,0.0827709
-0.498092,-0.178332,0.630313,-0.0739262,0.0422581,0.13838
0.648721,-0.21328,0.688255,0.332426,0.251831,0.174471
1.77523,0.0027139,-0.53337,0.0462158,0.254538,0.371868
1.61064,0.394928,-1.72144,0.208525,0.0231075,0.383149
1.2704,0.94419,-2.36307,0.221056,-0.0367337,0.30457
1.31677,1.10408,-1.928,0.218903,-0.378033,0.288367
0.457839,1.49136,-0.73814,0.328928,-0.505079,0.300735
1.59268,1.76412,-0.0368934,0.206595,-0.385622,0.105438
2.51477,1.925,0.732662,0.149694,-0.56584,-0.231685
0.234298,2.26739,1.9004,0.0818306,-0.299089,-0.143462
-2.71794,-0.0267062,2.68846,0.493137,-0.0491735,0.221571
-2.48984,-1.01849,1.89975,0.606019,0.38517,0.0658156
-3.4579,-0.598717,-0.371703,0.0456129,0.564919,0.00311351
1.70363,-0.141525,-1.80309,-0.637697,0.333216,0.00906193
0.174789,-1.47448,-2.36858,-0.207091,-0.22368,0.0686769
-1.4917,0.375504,0.488374,0.0458616,0.0755684,0.0293778
3.83846,1.19231,0.139762,-0.0741923,-0.025396,-0.275064
0.159529,0.892475,0.568133,-0.120888,0.21217,-0.409611
2.1787,-0.494911,0.342151,0.659647,0.631789,0.0450187
-2.09001,-0.794913,-3.24157,-0.00388914,0.00116268,0.408037
1.26371,-0.238031,-1.59363,-0.053242,-0.255079,0.4581
1.4565,0.590825,0.281123,-0.0276194,-0.312902,0.629519
-0.271424,0.987402,0.29986,0.204167,-0.107405,0.561629
1.12632,1.8749,0.187151,0.0653982,-0.0833805,0.242711
3.34426,1.76125,0.299831,0.240077,-0.0284182,-0.24024
0.311039,0.587719,0.452078,0.337434,-0.458321,-0.721805
-2.84792,-2.43387,1.12548,0.221163,-0.383061,-0.260938
-5.6417,-3.38459,1.74089,0.320597,0.187248,0.460075
0.638605,-1.42948,0.353128,-0.0619236,0.211921,0.507966
0.765181,0.142027,-0.715419,-0.150418,0.044493,0.55896
1.41875,1.5071,0.12225,-0.159368,-0.0101425,0.442063
0.992097,1.79383,0.198927,0.00307608,0.202858,-0.10435
3.89911,1.9255,-0.829573,0.0375913,0.226437,-0.578472
3.20574,-0.0245799,-0.25218,-0.0179016,-0.435685,-0.331003
-0.310074,-0.596555,0.393324,0.0396179,0.210825,-0.387698
0.00511464,-0.690973,0.902629,0.452648,0.369622,-0.134893
-0.130688,-0.92696,-0.938353,-0.0754803,0.280042,0.226697
-1.28621,-1.196,-1.35549,0.194346,0.0430784,0.648066
-1.17603,-0.0284628,-1.92359,0.0869236,-0.369837,0.544476
0.584991,1.7283,-1.41232,0.206156,-0.277816,0.423978
1.74203,2.48437,-0.427784,0.135632,-0.300442,0.292374
4.97418,2.41571,0.189503,0.160261,-0.192072,-0.169047
1.59299,1.0598,0.967741,0.600955,-0.54896,-0.345437
-3.35698,-0.634484,2.43038,0.387803,-0.251465,-0.192187
-4.29122,-2.16288,1.53395,-0.247207,0.229693,0.130494
-3.94999,-1.49803,0.0938524,0.0649265,0.182271,0.512988
0.688884,0.233926,-0.11904,-0.178115,0.154049,0.358261
1.82765,0.993742,-0.0534583,-0.130049,0.133954,0.202918
1.39983,1.11139,-0.156257,-0.059801,0.2041,-0.151191
2.19878,0.841277,-0.339564,-0.0413913,0.0958875,-0.32157
0.331328,-0.411077,-0.163209,-0.129504,0.101257,-0.197489
-0.619017,0.190083,0.509938,0.517781,0.360613,-0.0616463
0.882015,0.471544,-0.985302,0.106857,0.109411,0.266413
2.45512,0.673848,-1.2895,-0.134326,0.0388915,0.367237
1.72159,0.502938,-0.995184,-0.000227809,0.0334997,0.352777
-0.175854,0.25327,-1.64815,0.181032,-0.146565,0.322435
1.02359,0.953526,-1.4078,0.0901514,-0.237795,0.15384
1.69787,0.80593,-0.000373559,0.0729283,-0.495077,0.152501
-1.08463,0.856052,2.41212,0.270315,-0.35626,-0.0685323
-0.312353,0.41724,3.48417,0.387232,0.258093,-0.276866
-0.748836,-0.219271,0.932004,-0.0141607,0.334611,-0.107205
-1.093,-0.207308,-0.31624,-0.12087,0.502461,-0.0115167
1.89064,0.0953351,-0.663895,-0.0890932,0.362269,-0.027649
1.70057,-0.186783,-1.42031,0.0358655,0.158505,-0.0759766
2.01511,-0.453521,-1.7155,0.0562935,-0.0187381,-0.0852869
0.779036,-0.549625,-1.00898,0.0384274,-0.191861,0.0373572
0.309168,0.00478167,0.0135105,-0.0778126,-0.129966,0.0987989
0.105015,0.442245,1.47048,0.142028,0.0892264,0.0951585
0.834269,0.290296,1.02438,-0.0846931,0.187573,0.239515
0.371118,0.106687,-0.326685,0.12253,0.357169,0.401299
0.522878,0.850906,-2.27659,-0.00696898,0.116713,0.218866
2.16047,1.33498,-2.69136,0.159702,-0.0810901,-0.111741
1.29805,0.234847,-1.77286,0.271534,-0.489639,0.0499923
-0.787162,-0.0959634,0.569925,-0.050611,-0.58799,0.0384825
-0.854311,-0.0848371,3.23752,0.352328,-0.257668,-0.110746
-3.43805,-0.966561,3.69299,0.704217,0.173289,0.0377399
-1.49449,-0.912561,1.20616,-0.101507,0.350609,0.309274
-1.43873,-0.347554,-0.0334887,-0.269171,0.337296,0.429707
0.571539,0.618158,-0.354895,-0.249648,0.506866,0.250812
2.4224,1.29663,-1.29367,0.0674198,0.319885,0.0466839
2.76009,0.538934,-1.95206,-0.0501297,0.00212339,-0.0774456
1.29227,0.04661,-1.29727,0.0928433,-0.182832,-0.203826
0.657494,1.04262,-0.0955538,0.244659,-0.119988,0.0515623
2.81868,-0.316879,-0.808398,0.393279,-0.287773,0.0882355
2.43335,0.178071,0.458404,-0.815905,0.207441,0.168883
4.93947,0.942462,-2.98719,-1.24814,0.229914,-1.06309
0.518676,-1.98787,-0.764506,-0.614973,1.08244,0.395568
-4.49332,-0.831359,-1.91157,1.47304,1.66999,0.652382
0.961093,-1.90866,-1.08924,1.71466,-2.13183,0.831459
-1.3398,2.36239,3.61622,0.202503,0.9238,0.902511
-1.99075,2.32547,2.38424,0.38934,0.431718,-0.280011
-0.426494,2.24662,1.33819,0.253883,0.220535,-0.718471
-1.7637,0.184136,0.278107,1.20401e-05,0.499921,-1.00645
0.775212,-0.484788,-0.585245,-0.0827881,0.312493,-0.614065
1.89563,-1.00258,-1.15572,-0.0945058,-0.0906277,-0.153684
-5.21414,-1.39396,-1.417,-0.0603361,-0.412915,0.346496
0.0828635,0.00852554,0.834275,-0.0848079,3.45409e-05,-0.0625364
2.67476,1.65018,1.8537,-0.0993158,0.121906,-0.015045
2.31521,1.52442,1.25057,0.086116,0.313044,-0.364128
0.206404,0.0610161,-0.249011,0.140068,0.281122,-0.252702
-0.45421,-0.6599,-1.07486,0.362394,0.32682,-0.35412
2.30229,-0.49536,-1.08377,0.0355822,0.199034,-0.102941
1.13742,-1.85751,-0.473485,0.221739,-0.0152528,0.355454
-0.870013,-1.8896,-1.36333,0.15305,-0.0658644,0.484381
-0.284909,-0.506887,-1.46413,0.143075,-0.209841,0.596198
0.0684927,0.392522,-0.712178,0.251513,-0.361603,0.629161
0.378255,1.26376,0.406272,0.448316,-0.32321,0.433113
3.95706,2.64477,1.84671,-0.165716,0.109533,-0.43225
0.692214,1.50391,1.03627,0.317374,-0.388666,-0.246724
0.0673103,-0.134187,-0.149969,0.0108875,0.211319,-0.613996
0.806107,-0.39385,0.118387,0.0400577,0.0591046,-0.214045
0.65241,-0.690281,-0.255291,0.0291736,0.119964,-0.00533068
-0.00731979,-0.709683,-0.64014,-0.105461,-0.0241571,0.276529
-0.125684,0.111568,-0.195024,-0.196919,0.0403547,0.346353
2.38362,0.945064,0.447898,-0.0709227,0.165817,0.264677
1.40737,1.12516,0.39179,0.44759,0.289003,0.164318
2.81742,0.63865,-1.10415,0.098147,0.409541,0.0781852
2.51239,-0.00603436,-2.16422,0.264429,-0.0177015,0.313039
1.80241,0.32705,-1.36236,0.178988,-0.113393,0.45738
2.5465,0.496902,-0.425781,-0.021228,-0.112609,0.509064
1.9967,0.548452,0.104983,-0.100026,-0.0155933,0.523133
1.23735,0.857925,-0.398834,0.16273,0.032948,0.498403
1.70297,1.15871,-1.6737,0.380005,-0.105295,0.145222
0.244907,0.818536,-1.36176,0.38113,-1.00844,-0.368212
-1.08632,-1.06099,1.41165,-0.027402,-0.6528,0.116257
-1.56468,-0.486719,2.79405,0.129498,0.0353606,0.102859
-2.20765,-0.182292,2.50974,0.128742,0.312399,0.16446
-1.62053,0.053086,0.533782,-0.140207,0.59717,0.127684
-0.451738,0.410239,-0.579617,-0.124502,0.444229,-0.00878608
1.15654,0.628853,-0.706434,0.0115815,0.397623,-0.126689
2.29559,0.536459,-0.515659,0.655567,0.237403,-0.185466
1.49431,-0.524882,-0.601529,0.138042,0.0135843,-0.122396
0.426487,-1.114,-0.757701,-0.183243,0.0252528,0.212522
-0.750443,-1.34122,-0.482837,0.100611,0.0289197,0.6373
0.0455586,-0.0565107,-0.943344,0.0370701,0.0234717,0.637541
2.21347,1.62986,-0.804058,0.0457252,-0.0741823,0.593814
1.62834,2.26498,-0.712072,0.0872124,0.0326495,0.383384
3.7803,2.32928,-1.49081,0.258791,0.050551,-0.0715464
2.82407,0.670894,-1.59903,0.725926,-0.523024,-0.365228
-4.08859,-1.58165,1.6912,0.654612,-0.800144,-0.364621
-1.87109,-2.65772,1.8176,-0.0510606,-0.27428,0.439539
0.351258,-0.462535,1.57022,0.0167082,0.24239,0.568424
0.520925,0.710428,1.68505,-0.240493,0.35274,0.517159
-0.275374,1.1639,1.04874,-0.151401,0.572297,0.0409015
0.862934,1.27173,-0.328131,0.0026353,0.586677,-0.332931
3.61634,0.478402,-0.768904,0.269348,0.487362,-0.552452
1.7887,-1.47726,-0.820762,0.635749,0.0245104,-0.0979206
-0.314638,-1.78496,-1.15359,-0.0261644,-0.00450939,0.199653
1.32131,-1.17668,-0.785997,0.153211,0.33797,0.654692
2.83282,-0.503886,-1.45462,0.277476,0.095947,0.832997
0.161005,1.13798,-2.5918,-0.0115023,0.0761174,0.505073
1.35444,1.66061,-1.91439,-0.0270281,-0.161966,0.226699
0.873097,1.45497,-0.60494,0.222006,-0.250401,0.050587
0.215681,1.54491,0.456191,0.305304,-0.385565,-0.174722
1.21132,1.15526,1.6356,0.258937,-0.18431,-0.325572
-1.60445,-0.0510761,1.44911,0.0339441,-0.275718,0.0696911
-3.80689,-0.797805,1.68824,0.18933,0.240533,0.0839426
0.248637,-0.0194966,0.762417,-0.138381,0.411318,-0.0458847
0.59535,-0.0129611,-0.236393,-0.152826,0.224943,-0.0425859
-0.519595,-0.212899,-0.823714,-0.128744,0.157404,-0.0717958
0.70662,0.139062,0.00450549,-0.0803498,0.197523,-0.0898929
0.250522,0.0025467,0.541114,0.327193,0.348942,0.0859478
2.61527,0.051337,-0.467514,-0.0715729,0.348692,0.183394
1.42149,-0.340785,-1.03465,0.0965296,0.152022,0.396604
0.510303,-0.0420326,-1.62658,0.0901456,0.0482574,0.490126
1.72325,0.670928,-1.44609,-0.00537395,-0.0600576,0.451683
1.40526,0.759545,-0.998038,0.173559,-0.170862,0.391738
0.912942,0.967725,-0.668944,0.39089,-0.21803,0.208766
2.5512,1.59301,0.261617,0.23848,-0.0760638,-0.155053
2.32148,1.35025,-0.00050647,-0.261009,-0.199945,-0.122246
0.113644,0.265111,0.969482,-0.0566947,-0.189649,-0.0885269
-0.469332,-0.697994,1.56653,-0.125289,-0.0484526,-0.268546
-0.994071,-0.403902,0.920522,0.185154,0.21904,0.0870942
1.20702,-0.773088,-0.333884,-0.0764578,0.21375,0.130539
-0.397139,-0.379183,-1.17797,-0.0887025,0.0923428,0.124613
-0.27594,-0.283185,0.0153172,-0.169604,0.0382342,0.229153
-3.85891,-0.139353,1.30447,0.364791,0.304436,0.351874
2.30933,1.81424,-1.0047,0.00739694,0.395698,0.36878
3.52212,2.59057,-2.46042,0.379636,0.0193126,0.359296
2.63672,1.28775,-3.22777,0.485765,-0.317946,0.26386
1.74815,0.916495,-2.1143,0.270999,-0.522039,0.234369
1.76698,0.485561,-0.530134,0.228998,-0.642701,0.267409
-0.605665,0.388187,2.012,0.446156,-0.673075,0.10555
-3.00063,-0.13392,4.78118,0.600544,-0.0686572,-0.230632
-3.3567,-1.13593,2.16651,0.0964452,0.248805,0.103872
-0.600235,-0.685701,-0.0121362,-0.0949914,0.355688,0.247974
0.0435908,-0.0852507,0.333625,-0.26932,0.285598,0.229851
0.388978,0.176026,-0.375155,-0.220164,0.34477,0.0749521
0.842424,0.294235,-0.997131,-0.0383809,0.291248,-0.0942307
0.673243,0.386283,-0.966308,0.0114638,0.146172,-0.0476678
0.848629,0.779865,-0.00339244,0.422772,0.199354,-0.0300719
0.440184,0.128967,-1.60765,0.306696,0.155968,0.0513347
1.18058,0.669374,-2.56892,0.195772,-0.153254,0.157899
0.908067,0.6442,-1.81117,0.280314,-0.47661,0.304198
0.127438,0.514337,-0.665742,0.108494,-0.616539,0.322821
0.637686,1.04829,0.689636,0.122954,-0.44318,0.188033
1.4834,1.52257,1.66629,0.067157,-0.343603,0.082199
3.17096,2.06798,3.36363,0.360093,0.126646,-0.437786
-3.24998,0.583893,2.21772,0.564338,-0.36094,-0.159565
-7.08506,-2.05723,0.265231,0.130509,0.711253,0.047995
-0.416601,-0.792582,-1.18819,-0.336534,0.373679,0.0756349
-0.301853,-0.0973371,-1.83974,-0.0657469,-0.045155,0.233054
0.76891,0.610877,-1.3809,-0.0051071,-0.121142,0.0860171
2.66792,1.06971,-0.841468,0.00989699,-0.257782,-0.0677687
-0.107377,0.915402,0.121429,-0.11256,-0.463418,0.0126104
0.554444,0.961224,1.56602,-0.00217652,-0.127002,-0.172361
0.29396,0.612028,1.51388,-0.111384,-0.00260268,-0.221321
-0.206319,0.0695003,0.756929,-0.354915,0.153566,-0.238775
1.58122,1.10755,0.778259,-0.076852,0.275734,-0.399305
-2.73795,-1.8612,-1.20491,0.485493,0.455175,0.303782
-1.6146,0.235268,-4.0147,0.495453,0.11921,0.221402
2.89602,0.525842,-3.27315,0.231323,-0.380474,0.217723
1.23935,-0.202584,-2.10575,0.100397,-0.837346,0.323491
-1.38115,-0.437118,0.694914,0.122478,-0.81781,0.281197
-2.57725,-0.13551,4.66524,0.949884,0.2581,0.309787
0.267367,0.210968,2.44807,0.438002,-0.17889,-0.0071733
-4.85695,-0.793205,1.42037,-0.156936,0.260826,0.152568
-0.798223,0.0614224,1.37874,-0.257811,0.484179,0.0425279
0.905401,0.610272,0.774679,0.00574857,0.540454,-0.119422
-0.12288,0.427415,-1.00161,-0.0589713,0.213654,-0.202585
0.168601,0.416067,-1.25687,0.0786734,0.268899,-0.33864
3.75889,0.601856,0.251194,0.349647,-0.029243,-0.355147
-0.110555,-1.38488,-0.737657,-0.0100179,-0.0427769,-0.0460784
-1.21581,-2.07276,-1.79938,0.390834,-0.192617,0.227259
-2.80115,-2.19528,-2.29921,0.235703,-0.352696,0.273044
-1.02023,-0.850582,-1.63134,0.204138,-0.551057,0.177424
-0.328708,-0.860937,0.686643,0.133548,-0.690926,0.243177
-2.00323,-0.917121,3.26211,0.119489,-0.510969,0.204172
-2.76334,-1.14758,5.53121,1.08656,0.156601,0.315334
-0.199363,-1.15133,3.27679,0.328978,0.982691,-0.0148814
0.0617162,0.570025,-0.613996,-0.14439,0.372151,0.17492
-3.18347,-0.366091,-1.00579,-0.29899,0.486529,0.173849
-0.32752,0.876128,-1.0523,-0.106955,0.439556,0.022542
2.23429,1.25709,-1.38815,0.0623313,0.23566,-0.315818
4.59973,-0.0610955,-0.37602,0.217709,-0.0492214,-0.447012
-2.64791,-0.544796,-0.34339,0.184265,-0.614223,-0.280354
-1.75334,-0.590683,1.90186,0.0583823,0.19955,-0.229012
1.17865,-1.16314,2.61745,0.477667,0.531782,-0.0921653
0.387439,-0.812045,-0.365552,-0.21005,0.323297,0.142407
-0.234297,-0.873281,-2.05456,0.0949489,0.371184,0.524517
-1.11385,0.221171,-3.30756,0.128307,-0.0517583,0.490779
-0.566859,1.37453,-2.63346,0.28855,-0.339719,0.424863
1.5758,1.8139,-0.903805,0.191706,-0.36756,-0.138274
4.21612,1.95217,0.506984,0.335487,-0.646172,-0.622533
-2.37478,0.784193,3.51786,0.567158,-0.737557,-0.0773851
-3.69873,-2.71877,3.37749,0.518017,0.585072,-0.196431
-1.77821,-1.23547,0.294726,0.0941492,0.151198,0.33948
2.78922,0.65838,-0.83194,-0.178693,0.253074,0.573809
-0.581767,1.79745,0.358606,-0.315488,0.100633,0.222482
0.611783,1.69148,0.754814,0.0769633,0.473788,-0.326416
1.15407,0.629826,-0.763083,0.251275,0.00514442,-0.648368
0.326221,-0.792916,-0.448176,-0.0202515,0.123609,-0.348975
-0.419955,-0.837257,0.749184,0.66734,0.325427,-0.292536
2.76256,-1.0413,-0.327394,0.297821,0.531291,0.170031
1.0316,-1.52696,-2.6952,0.104782,-0.130775,0.514288
-2.22745,-0.953182,-3.40455,0.188095,-0.22949,0.569522
-1.17584,0.0808527,-1.72237,0.114173,-0.523025,0.461093
0.151784,1.4104,0.473914,0.0487897,-0.555522,0.208934
1.9648,2.17125,2.64151,0.175166,-0.37173,-0.0343377
1.34194,2.54785,3.9317,0.878103,-0.185722,-0.280017
-3.67884,-0.40356,2.39668,0.240717,0.224609,-0.580756
0.667074,-0.683019,0.236193,-0.216264,0.499627,-0.0404696
-0.863651,-0.690464,-0.407354,-0.1881,0.544243,0.129275
2.88799,0.117158,-1.19454,0.105904,0.567402,0.231588
2.5945,0.0438143,-2.33519,0.17236,0.0792561,0.285709
0.813017,0.142367,-2.33716,-0.0343293,-0.105014,0.258212
0.869542,0.865134,-1.32447,-0.100434,-0.582787,0.258926
0.876554,1.36142,0.872268,0.292465,-0.319045,0.00750655
1.68687,0.153006,1.07012,0.237622,-0.0957163,-0.149426
0.82681,0.298229,0.667422,-0.0596637,0.044703,-0.113139
0.148273,-0.425643,0.586236,-0.0581015,0.0750156,0.0920515
-0.102734,-0.59029,-0.213901,0.0354347,0.127781,0.211226
-0.077537,-0.254164,-1.01946,-0.00605178,0.0201865,0.250603
-0.0921466,-0.0596804,-0.985518,-0.0437288,-0.146799,0.256169
-0.483033,0.269661,0.257762,0.111703,-0.17301,0.176005
-0.741423,0.223374,1.77536,0.581152,-0.0753233,0.147605
2.87643,0.235724,1.8508,0.00844413,0.689709,-0.500316
1.74669,-0.355425,-0.105932,-0.135811,-0.192976,0.00227684
-1.66007,-0.841533,-1.00982,-0.060311,0.188037,-0.0533623
1.01876,-0.34719,-1.20814,0.00393027,-0.0219235,0.143414
0.977475,0.0856565,-0.488835,-0.0167051,-0.231357,0.211882
1.62548,0.391166,0.403766,-0.0725948,-0.167515,0.104492
1.60744,0.483988,0.942663,0.0152798,0.0125357,-0.0861202
1.50117,0.377033,0.820089,0.00096184,0.313265,-0.211065
0.920411,-0.789331,0.0252074,0.680246,0.39096,0.0256076
0.260793,-1.02618,-1.92458,0.208592,-0.0580034,0.294394
1.11974,-0.35379,-2.4952,0.0530501,0.0233006,0.314023
1.39497,0.02543,-1.76154,0.0769624,-0.173733,0.533596
0.475179,0.453133,-1.30832,0.13152,-0.23116,0.523463
0.868544,1.22464,-0.989183,0.212415,-0.266891,0.413941
2.15097,1.32198,-0.359968,0.210135,-0.273272,0.169037
0.690606,1.23185,0.613848,0.0444373,-0.271956,0.0832607
0.529873,0.917883,1.20293,0.011368,-0.015061,-0.0763754
-0.0659317,0.629463,1.55409,-0.0342251,0.182954,-0.15498
-0.518664,-0.000617135,1.4507,0.107925,0.313139,0.0243393
1.09869,-0.107334,0.377246,0.139614,0.570174,0.00884509
1.73358,0.282686,-1.10912,0.0620736,0.270052,-0.060341
2.29764,-0.131131,-1.71654,-0.0352873,-0.217542,0.376288
2.77637,0.811991,-1.56915,-0.2648,-0.133195,0.434068
3.03372,0.596971,-1.63517,0.00475872,-0.117328,0.30058
0.406348,-0.716993,-2.20063,0.0550284,-0.244617,0.320598
1.73704,2.16086,-0.343452,0.123739,-0.626371,0.374204
2.19273,2.71126,0.619494,0.275377,-0.245248,0.308294
-0.236735,-0.963793,-0.672487,0.486024,1.04711,-0.687425
-0.59972,-1.24293,-0.410265,0.308065,0.106989,-0.196131
-0.437373,-1.01269,-0.00941423,-0.0462112,0.114712,-0.00792986
0.033573,-0.497317,0.477289,0.0128167,0.0878189,0.187743
-0.237319,-0.890224,0.470275,-0.0595374,0.119555,0.0123913
0.26229,-1.16726,0.476078,-0.0189736,0.0484323,0.00621533
0.512198,-1.77575,0.805767,0.004475,-0.0160094,0.0945953
-0.686924,-1.79615,1.44889,0.148819,0.120955,-0.210645
-1.69717,-2.22981,1.64131,-0.247319,-0.00654274,0.13224
-2.47898,-2.31751,0.627129,0.0626378,-0.177096,-0.151964
0.685673,0.0100901,-0.457385,0.0315202,0.124023,-0.12702
