rotation_x,rotation_y,rotation_z,acceleration_x,acceleration_y,acceleration_z
-0.0634414,-0.0328197,-0.0423141,0.00720541,-0.0306148,0.00281876
-0.0290455,0.00248651,0.00459878,-0.00416803,-0.0206325,0.0141564
-0.000268168,-0.00714503,0.00690578,0.00102318,-0.00919545,-0.000341296
-0.00452445,0.00460838,0.00681345,-0.0035822,-0.00207308,0.00774562
0.0156797,-0.000759262,0.000513871,0.00526305,0.00286192,-0.000523448
-0.0290977,0.000335209,-0.00393505,-0.00188856,5.00083e-05,0.000961542
-0.0258366,0.00141943,0.00675508,-0.00183497,-0.00302106,0.00200707
-0.059867,0.00680438,0.0172777,-0.00274673,-0.0141457,-0.00547862
0.00720324,-0.00714641,0.00906962,-0.01675,0.00409487,-0.00681424
-0.0194737,0.00460954,0.00141674,-0.010966,0.00655901,-0.00896835
-0.0269176,0.00889203,0.00349714,-0.000328004,-0.00740412,0.0106406
-0.00874923,0.00248607,0.0132227,0.00256172,-0.000511736,0.0033406
-0.00243266,0.00245846,0.000426139,-0.00147223,-0.00828943,0.00289285
0.0252327,0.0024269,-0.00588161,0.00421768,-0.0041163,0.00521857
-0.01208,0.00244914,-0.00922653,0.0079706,0.00146139,-0.000461936
0.0231198,0.000297436,-0.00266981,-0.00679725,-0.00475091,-0.00657302
0.00702393,-0.00826782,-0.0208382,0.00992723,-0.0101551,0.0145423
0.00191129,0.0131606,0.0131921,0.012867,-0.00484729,0.00266409
-0.0278558,0.0206786,0.0237173,-0.00193295,-0.00586149,0.00708789
-0.0756018,0.0175694,0.0577495,0.00422467,-0.0112123,-0.0023393
-0.0485805,0.042226,0.119661,0.00991526,0.00915399,0.00950491
-0.12998,0.15996,0.21689,0.0341251,-0.0195649,0.010128
-0.0508561,0.120463,0.266592,-0.0391746,-0.00847459,-0.00309831
-0.149611,0.0715074,0.32744,4.28855e-05,-0.00893167,-0.00616312
-0.489369,0.185017,0.340391,0.0193489,0.0158452,0.0397475
0.0901553,0.233364,0.139242,-0.0370156,0.00574729,0.027732
0.203405,0.114503,0.0229085,-0.0297332,-0.0210745,-0.0263119
0.127396,-0.0361371,-0.0234113,0.0156897,-0.00298864,-0.0046888
0.10701,-0.0489791,-0.0458424,-0.00927415,-0.00135985,0.000791013
0.0131743,-0.0339769,-0.0591114,-0.00265541,0.00326887,0.0022313
-0.00993703,-0.0253191,-0.00476238,-8.64118e-05,-0.0234296,-0.011084
-0.00790085,0.00242104,-0.0230991,-0.00510611,0.0133914,-0.0139093
-0.018488,-0.0274559,-0.00905586,0.00817852,-0.00915653,-0.0181399
-0.00255051,-0.00291536,-0.018773,-0.00722554,-0.00106752,-0.0182059
-0.00366756,-0.00399842,-0.0273162,-0.019072,-0.0172324,-0.00428915
-0.00160349,0.00238797,-0.0391014,-0.0117538,0.00100628,-0.00216889
-0.0164901,-0.0125437,-0.0326509,0.0088428,-0.00364631,0.00170571
-0.0173293,-0.00713669,0.00470647,-0.00361785,0.0014379,0.0209993
-0.0350912,0.00686386,0.0622459,-0.00608502,-0.0144864,-0.00909966
-0.433424,-0.0444971,0.451072,0.0387477,-0.0897499,-0.0328436
-0.195001,-0.259559,0.963008,0.0983731,-0.0725838,-0.0272369
0.0478733,0.124288,1.27448,0.00425652,-0.0495217,0.103602
0.502774,0.400234,1.05964,-0.0281565,0.100989,0.0120437
0.065834,0.614147,1.0267,-0.00548926,0.0416831,0.0468031
-0.951502,0.514899,1.25111,0.0904845,0.117671,0.00411415
-1.86314,0.179418,0.820359,-1.40071e-05,0.0620452,-0.00223702
-0.707389,-0.107787,0.791291,0.0473349,0.0443612,0.0164111
-0.0461558,0.0156082,0.17113,0.0333571,-0.0696984,0.00981605
0.00263247,0.0841716,0.305492,-0.00366133,-0.0555969,0.00494897
-0.446913,0.115068,0.675429,0.00942835,0.003438,0.0276597
-0.836718,0.090849,0.706179,-0.00989226,-0.00267459,0.0177584
-0.376486,-0.0692802,0.353148,-0.0303491,0.00097014,-0.00326204
-0.0050106,-0.00941871,-0.0732294,0.0187943,0.0230518,0.00183362
0.162928,0.0199271,-0.322807,0.00834715,-0.0310074,0.00319254
0.0541613,0.0270168,0.0186414,-0.00435013,0.00371394,0.00739384
0.0469526,-0.0359202,0.0660366,0.0106499,0.0178674,-0.00168747
0.0231524,-0.0242583,0.00496934,-0.00752643,0.0220782,0.0108441
-0.0118978,0.00891005,0.0206498,0.00128542,-0.00366519,0.0144548
0.0276424,-0.0412832,0.0446282,-0.00240354,0.0130148,0.00146663
0.074997,0.0225891,-0.060315,-0.0134663,0.0307865,0.00225979
0.113284,0.0438996,-0.0741988,-0.00828932,0.015256,-0.0165255
0.0601749,-0.00407312,-0.0420335,0.000852257,-0.0038425,0.00560355
0.0635052,0.0333448,-0.0230316,-0.00231785,0.00687569,-0.00384402
-0.0152252,0.0280982,-0.00299136,-0.00308889,-0.00345626,0.0024578
0.236099,-0.0461374,-0.197096,0.00921433,0.0131661,0.0144123
0.352849,-0.104345,-0.446298,-0.00986405,0.0476382,-0.0262014
0.227011,-0.253495,-0.272712,0.0236129,-0.0576849,-0.0271106
-0.159262,-0.147007,-0.019492,0.00269948,-0.0492713,0.0453773
-0.22021,0.127774,0.0981642,-0.0339109,-0.0141354,0.00992996
-0.117363,0.0399683,0.0211226,0.0060643,0.0111576,-0.00479805
-0.123962,-0.19688,0.186107,0.0108984,-0.00997958,-0.0350447
-0.0394091,-0.0155788,0.0548977,-0.00144321,0.0280219,0.0397722
0.000279885,0.0183348,-0.0819358,-0.00817774,0.0210719,0.00214469
0.0372773,-0.0373174,-0.126312,0.00627765,-0.00551721,0.00290215
0.0183901,-0.0532381,-0.0760625,0.00828409,-0.00513186,-0.00753844
0.00501004,-0.0680422,0.0041161,-0.00392106,-0.011721,0.00808346
-0.136451,0.105471,0.208674,-0.0159058,-0.0370771,0.0235725
-0.794642,0.286553,0.241362,-0.00803018,-0.0351682,0.0328256
-0.573443,0.291601,0.169503,-0.00647211,0.0578021,-0.00906199
-0.0173856,0.071881,-0.0118314,0.015855,0.0418428,-0.0201365
0.601214,-0.109219,-0.0724486,0.0131804,0.00604506,-0.0219001
0.224728,0.0493403,0.0308908,-0.000189051,0.00948671,0.0268259
-0.15616,0.0829026,0.122202,0.00163625,-0.0217588,-0.0105488
-0.303009,0.02722,-0.0190223,0.00221032,0.0430622,0.00450325
-0.125565,0.0493693,-0.103977,0.00197512,0.0166141,-0.0136669
-0.0986809,0.05583,-0.0633186,-0.00863318,-0.0226995,0.00549471
-0.221829,0.132953,0.00517008,-0.00571588,-0.0381636,0.0116394
-0.0553981,0.126481,0.0410942,-0.00714937,-0.00136505,-0.0220476
-0.0189425,-0.0198012,0.0923966,0.00150949,0.00552967,-0.00954521
-0.0674736,0.0430791,-0.0107636,-0.000454277,0.0186552,0.0152354
-0.0803984,0.0216873,-0.0320416,0.00804234,-0.00110295,-0.0186232
0.0112786,-0.0104094,-0.0218764,-0.00292005,0.0106406,0.000142157
0.0507552,-0.0478066,-0.00973034,0.00414467,0.00852668,0.00209415
0.0273667,-0.0178679,-0.00360239,0.00908861,-0.0117664,0.0305579
0.029518,-0.00291101,-0.00155461,0.00451586,-0.00379337,0.00779057
-0.077853,-0.057228,0.0443387,0.000855863,-0.0189284,-0.0130263
-0.0216223,-0.00500674,-0.000664996,-0.00194502,0.0111094,0.00504172
-0.0365017,0.00676297,0.00454721,-0.00207838,0.00138018,0.00433737
-0.00240151,0.000330016,0.00578524,-0.00259364,0.0064666,-0.00451005
-0.0279015,0.00571164,0.0174057,0.000528008,-0.0108648,0.00901991
-0.0115174,0.00261243,0.0847996,-0.00555421,0.0223414,-0.00163269
0.0384604,0.0153609,0.0667417,-0.0096992,0.00961694,0.00106573
0.0613718,0.0162581,-0.0218623,0.0117507,-0.0164216,-0.0106199
-0.0218048,-0.0253536,-0.0293802,0.0043003,0.00548694,-0.00287592
-0.0281559,-0.0178601,-0.0230421,0.000211209,-0.00352407,0.00342464
0.00372062,-0.00509436,-0.0390308,-0.00724143,0.00686851,-0.00561345
-0.0356491,-0.010389,-0.0295278,-0.00254193,-0.00094834,-0.00101662
-0.0239305,-0.0146703,-0.0294568,-0.000702947,0.000114188,-0.000542164
0.000684785,-0.00290843,-0.0123463,0.00465223,0.00464422,0.0021165
-0.0417699,-0.00175879,0.0152648,0.00273982,-0.00293519,0.00287306
-0.0268759,0.0281282,0.00871614,-0.00231525,0.00412121,0.000345111
-0.00455308,0.023824,0.00027957,-0.00066933,-0.00441182,0.00220066
-0.0237485,0.00460825,-0.000734542,-0.00701934,0.0062713,-0.00586009
-0.0259822,-0.00930534,-0.0166779,-0.00543752,-0.00325418,-0.00796634
-0.000453416,0.00561679,-0.0252299,0.000851691,0.00291435,0.00183773
-0.00984059,0.00140979,0.00895487,-0.00680196,0.000829458,0.00149876
0.0166805,0.00989991,-0.0113013,-0.00166363,-0.000752866,-0.00705051
0.101738,-0.00303529,-0.0408139,-0.006897,0.0143802,-0.0033555
0.126079,-0.00310133,-0.0685037,0.000255957,0.00669017,0.00771022
0.0580748,0.00661738,-0.0378359,-0.00014326,-0.0034171,0.00790465
0.138015,0.0311299,-0.0355591,0.000102535,0.00614485,0.00214994
0.0487725,0.0195257,0.00905564,0.00322653,-0.0137569,-0.00976092
0.0594796,-0.0562983,0.0245465,0.00750938,0.00309935,-0.0151046
0.0693569,-0.145936,0.0807231,0.011374,0.00314388,-0.0352095
-0.0266409,-0.0578701,-0.300574,-0.0241259,0.00145914,-0.0154204
0.392626,0.478566,-0.617676,-0.0722196,-0.041231,-0.255005
1.13998,-0.416265,-0.107972,-0.0776895,-0.0744046,-0.168431
0.906248,-0.63515,-0.153371,0.0182472,0.122906,0.114347
0.206181,-0.540018,0.189567,0.141886,0.140855,0.0859702
-0.617929,-0.416398,0.277569,0.109284,-0.021825,0.085126
-0.589938,-0.106915,0.119672,0.210391,-0.0789337,0.0647037
0.0129291,0.0346172,0.0718628,0.0176569,0.0445801,0.0132983
0.231523,0.243524,-0.0974872,-0.00372946,0.0703604,0.0453984
0.321194,0.324364,-0.254737,-0.0192024,0.0223864,-0.0008322
0.0172753,0.116565,-0.099602,0.0126518,-0.0529618,-0.035274
0.0522259,0.0345506,0.0506409,-0.00214142,-0.0146618,-0.00312525
-0.0517568,0.0956357,0.118235,-0.00926015,-0.0164805,0.0131728
-0.287172,0.0697529,0.487207,0.0121431,-0.0929208,-0.0331104
0.05214,-0.129463,0.941723,0.0588398,0.0139721,-0.0725755
-0.22865,-0.0731199,0.664645,-0.0168101,0.0285837,0.0317909
-0.369409,0.112169,0.272933,-0.0104778,0.0186551,0.046993
-0.851451,0.0266523,0.0302144,-0.0061838,0.0896061,-0.0265154
-0.468649,0.00690953,-0.0985746,-0.037467,-0.0517973,0.0285541
0.346408,-0.00119922,-0.107224,0.000334024,0.00796375,0.034841
0.236158,0.216305,-0.388979,-0.00591156,0.038872,0.160694
1.21664,0.23881,-0.533968,-0.0124972,0.0846873,0.0511998
1.26652,0.327362,-0.574958,0.0035539,-0.0129908,-0.0151144
0.712855,0.156257,-0.314153,0.0210986,-0.0966096,-0.0522663
-0.0291187,0.00887175,-0.00826096,0.0136692,0.028713,-0.0169575
-0.053523,0.00998775,0.00873646,-0.0179982,-0.0169078,0.00185442
0.0284056,0.00562025,-0.0101613,-0.00308758,0.0139991,-0.0122877
-0.0386249,0.00997164,0.00558558,-0.000823796,-0.00269303,-0.00025785
-0.0332568,0.0142517,0.0119884,-0.00163069,0.00108808,0.00521708
-0.0247799,0.00889128,0.00457578,-0.00188391,-0.00493868,0.000290275
-0.00668713,0.00459884,0.00146705,-0.00368649,0.00132126,-0.0021469
-0.00446176,0.0270534,0.01522,-0.000726715,0.000381753,-0.000806153
-0.000331119,0.00671867,-0.00493235,0.000203997,0.000565261,0.00122827
-0.0174581,-0.00931116,-0.0166472,0.000488386,-0.000353068,0.00237525
0.0378591,0.00130092,-0.0325348,-0.0137454,0.00880702,-0.00783443
-0.00356767,-0.00931112,-0.0101829,-0.00108832,-0.022615,-0.00260919
-0.0353994,0.00356864,0.010983,-0.0068353,-0.0110339,0.00127757
-0.0685107,-0.00283852,-0.00191993,-0.00983787,-0.0112928,-0.00110096
-0.0388113,-0.00503559,-0.0242337,-0.0048365,-0.00280736,0.000608265
-0.00887625,0.00351551,-0.00815025,0.00783798,0.00961931,-0.00252146
-0.0249214,-0.00610383,-0.0177623,-7.55787e-05,0.00010334,0.000774443
0.0144968,-0.00613485,-0.0186838,-0.00274602,0.00753143,-0.00597584
0.0073481,0.0131857,0.0313816,-0.0023091,-0.013514,-0.00548023
0.00295168,0.000333656,0.0100787,-0.0095136,-0.0123727,-0.00105911
0.0114046,-0.00182972,-0.00162839,-0.00853647,0.00628541,-0.00497079
0.00286395,0.00351129,-0.00489874,0.00207436,0.000591636,-0.00228113
0.00187183,-0.00287421,0.00795929,0.00684564,-0.00057584,-0.000728786
-0.00243938,0.00138729,-0.000633019,0.0018564,-0.00557375,5.54323e-05
-0.0185251,0.000300899,-0.0177806,-0.00908104,-0.00149775,0.00316095
-0.0439844,-0.00285095,0.00137656,-0.00836708,-0.011827,-0.00248718
-0.0195229,-0.00501881,-0.00599683,-0.00234888,-0.00775531,-0.00524467
-0.0259545,-0.00502489,-0.0124322,-0.00425178,-0.0108489,-0.000344515
0.000667674,0.00135911,-0.0155801,-0.00318788,0.0049118,-0.000162065
0.0178462,0.00565616,0.00582576,-0.000547707,0.0136373,-0.00205326
-0.00129448,0.00674983,0.0121579,-0.00296475,-0.00637135,0.000584245
0.00814347,-0.00291385,-0.0123187,0.00483176,-0.00197886,-0.00220871
0.0049842,-0.00503688,-0.00590562,-0.00579049,0.00198324,-0.00224632
0.000744939,0.00244949,-0.00276516,-0.00782917,0.00724754,-0.004049
-0.0205921,0.00032065,-0.00710296,-0.00209303,-0.00313061,-0.000963449
-0.000340873,0.000308533,-0.00596117,0.00470839,-0.00525285,0.00104374
0.015721,0.00459152,0.00689296,0.0076215,-0.00133729,7.4029e-05
-0.0343483,0.000359577,0.00887077,0.000613093,-0.00254709,0.00401688
-0.0216338,-0.00287497,-0.00281386,0.0084924,0.00588256,0.0033527
-0.0205471,0.00140349,0.000365914,0.00261785,-0.00812219,0.00267971
-0.00665089,0.000337162,0.0079057,0.007486,-0.00482062,0.000890374
-0.017417,-0.00395909,-0.0102708,-0.00217511,-0.00253841,0.00295252
-0.0535493,-0.00390343,0.00561909,-0.00985758,-0.00882961,0.00517291
0.00179077,0.00137486,-0.00595953,-0.000780851,0.00136474,-0.000122607
0.0210092,0.00243968,0.000516591,0.000167519,0.00864825,-0.00194514
0.00819729,0.0024419,-0.00380538,-0.00192641,0.00190328,-0.00313246
-0.00668917,0.000325577,0.0014958,-0.0028882,-0.000834897,-0.00221109
-0.00886512,0.000314924,-0.00599313,-0.00277157,0.00347424,0.000824392
-0.0045907,-0.000753003,-0.00383273,0.00120637,0.00244555,0.00179935
0.00607159,0.000308755,-0.00273058,-0.00186175,-0.00249942,-0.000329196
0.0178124,0.00244328,0.000502039,-0.00284785,-0.000903875,-0.00339258
-0.00777407,0.000321849,-0.00171586,-0.00384265,0.000105023,-0.00144762
-0.00455771,0.00139293,0.00149525,-0.00288007,0.00469652,-0.00138658
0.000751372,0.00245113,-0.00169623,-0.00195733,-0.00173269,-0.000487626
0.00287319,-0.00318837,-0.00272427,0.000876695,0.00347267,0.00237322
-0.00351741,0.00193013,-0.00278371,-0.00126223,-0.000250205,0.000410378
0.000731199,-0.000337302,-0.004887,-0.00513314,0.00472973,-0.00254387
0.00607195,0.000714337,-0.0027395,-0.00609453,0.00156032,0.00118047
-0.00456402,0.000723941,0.000427737,-0.00146899,-0.00743689,0.00104809
0.000723451,-0.00249458,-0.00594494,-0.00044769,-0.00482318,0.000132084
-0.000335089,-0.00142408,-0.00488664,-0.00232077,-0.00386778,-0.00376368
0.00926814,-0.000360054,-0.00271917,-0.00332253,0.00500152,-0.00183278
-0.00565504,0.000716884,-0.00384924,-0.00241658,-0.000450268,2.72393e-05
-0.00456345,0.00179191,0.000421288,-0.0014939,-0.00311686,-2.3663e-05
-0.000314824,0.00073324,-0.00169482,-0.00637153,-0.00380646,-9.98974e-05
0.000711467,-0.00135683,-0.00808574,-0.00238879,0.000912666,-0.00297856
0.0145873,0.0339064,-0.0071948,-0.0101445,-0.00130525,-0.00594723
-0.00243246,-0.0109302,0.00157997,-0.00106417,0.000334561,-0.000112832
0.0092852,0.00828473,-0.000637452,-0.00117277,-0.00226906,-0.00212145
0.0071239,0.0114809,-0.00600709,-0.00248069,-0.00065203,-0.00212795
0.00394107,0.000807418,-0.0027454,-0.00386855,-0.00492081,-0.000273526
0.00922493,0.00292743,-0.0102199,-0.00277279,-0.00264271,0.000654697
0.000736351,-0.00239588,-0.00380669,-0.00186829,-0.000409365,-0.00231522
-0.0120872,-0.0130782,-0.00912626,-0.00039643,-0.00371896,-0.00133085
-0.00779422,-0.0152082,-0.0037548,0.000353888,-0.000273421,-0.000351667
0.00500912,-0.00666808,-0.00162619,-0.00293988,0.000529706,-0.00233877
-0.00564806,0.00188222,-0.00278704,-0.00363255,0.00123397,-0.00319612
-0.00350919,0.005088,-0.00173336,-0.000713274,0.000736967,-0.00210577
0.0337774,0.0296232,-0.00495875,0.00196685,-0.00411768,0.000701487
0.0316582,0.00185861,-0.000511636,-0.00049676,-0.00182553,-0.00256926
-0.00243673,-0.0066592,0.000483721,-0.00145663,-0.00110586,-0.00458449
0.0177982,-0.00133718,-0.00161183,-0.00289454,0.00487278,-0.00273478
-0.0163047,-0.0130611,-0.00166492,-0.0026165,-0.00701214,0.00105315
-0.00247565,-0.0077384,-0.0059205,0.000836119,-0.00483684,-0.00101185
0.0124892,-0.00239543,0.00157974,0.000430241,-0.00183772,-0.00303823
0.00182329,-0.0109353,0.000527776,-0.00212951,0.00303507,-0.00212598
-0.00242832,-0.00238394,0.00152315,-0.00092563,-0.00249051,-0.000278056
-0.00351715,0.00188143,-0.00278076,0.00268474,-0.00553033,-0.00131637
0.00929365,-0.0130732,0.00270565,-0.00079152,0.00124003,-0.00233734
-0.00137604,-0.00345706,-0.000601993,-0.00356917,0.00224452,-0.00333697
0.0124982,0.00294767,0.00261301,-0.00395022,0.002919,-0.00918162
-0.00351731,-0.0109342,-0.00163102,-0.00463177,-0.0045972,-0.00150913
-0.0109893,-0.0120008,-0.00378831,0.00291504,-0.00953852,0.00156343
-0.00250344,0.000798363,-0.0113193,0.00119343,-0.00145313,-0.00134963
0.0018099,0.000809592,-0.00275463,-0.00346915,0.00635245,-0.00235736
-0.00569081,-0.0066738,-0.00914393,-0.00442706,0.00669287,-0.00147831
0.0135729,-0.00452743,0.00480382,0.000591382,0.00592656,-0.000557721
-0.00560521,-0.00130775,0.00470962,-0.000512287,-0.00376032,-0.00154114
-0.00351033,-0.0098644,-0.000568913,0.00170182,0.000723913,-0.002451
-0.00351355,-0.00345701,-0.00167911,-0.000400662,0.000400662,-0.00332814
-0.000307192,0.00295069,-0.000638213,0.00054875,-0.000932291,-0.00324118
-0.00563302,-0.00558741,0.000462244,0.000838608,-0.00171004,-0.0021227
-0.00456243,-0.0087923,0.00155842,-0.00234269,-0.0040862,-0.00115681
-0.00132962,-0.000239826,0.00685731,0.00196056,0.000179633,-8.61883e-05
0.00179539,-0.00239801,-0.0048723,0.000108972,0.000220656,-0.00303429
0.00610347,-0.000252565,0.00261077,0.00502986,-0.0050355,-0.00122833
0.00077639,0.000819402,0.00258435,0.0010948,3.48687e-05,-0.0012694
0.00290202,0.00295286,0.00150889,-0.00179324,-0.00257272,-0.00330985
0.0124971,0.000811324,0.00262677,-0.00366576,0.000693962,-0.00242424
0.00292761,0.00300017,0.00578292,0.00213785,-2.25604e-05,0.000445306
-0.00455097,0.00193282,0.00255469,-0.000781715,-0.000700966,-0.000595152
0.00397887,-0.000230639,0.003672,-0.000725314,0.00149024,-0.00357658
0.000763324,0.000790732,0.000444192,-0.000763491,-0.000234067,0.00220394
-0.00880656,0.00181714,0.00360879,-0.00185466,-0.00693375,0.00121564
0.0125369,0.00390767,0.00901476,0.00187366,-0.00440927,-0.00569737
0.0029755,0.00926236,0.01322,-0.00150254,-0.002694,-0.00191915
-0.00457591,0.00283277,-0.00172503,0.00122464,-0.00382051,8.9705e-05
0.00182791,-0.00144098,0.000463366,-0.000685364,-0.000706106,-0.00191075
0.00396759,0.00283153,0.00151326,-0.000736788,0.00157215,-0.00100541
0.00183756,-0.00784677,0.00264259,-0.00204085,0.00306293,-0.0137233
-0.117555,0.0787387,-0.0143931,-0.00588727,0.0195998,-0.0207822
-0.342505,-0.267485,-0.182874,0.0183223,0.0333697,-0.0350817
0.15615,-0.418767,-0.347772,0.0513404,0.0718421,-0.043503
-0.454351,-0.042212,-0.910231,0.00132613,0.0903948,0.000392795
0.355195,0.317657,-0.626394,0.00659014,0.171807,0.0373907
-0.304641,0.503777,-0.156748,-0.17656,0.0236941,-0.140678
-0.233001,-0.21971,0.306575,-0.0657194,0.0493819,-0.135963
-0.552757,-0.0835462,0.455147,-0.0122181,-0.0308409,0.0282779
-0.0469103,-0.04053,0.228115,-0.00755601,-0.108275,0.0157286
-0.0370938,0.0585447,0.0789954,0.0104725,-0.0117046,0.0720962
-0.0495682,-0.0203888,0.138224,-0.00415011,0.00959597,-0.0196204
-0.144824,-0.0247136,0.0673775,-0.0123896,0.00668484,0.0182104
-0.0400978,0.0508151,-0.0662742,-0.00617598,0.0668131,-0.0186452
-0.019661,0.0508564,-0.0341455,-0.00646442,0.0194255,-0.00391531
-0.0480332,0.09158,0.0285212,-0.0132967,-0.0035974,-0.0110506
-0.185769,0.0342381,0.16407,0.010115,-0.016603,0.00294673
-0.244923,-0.021105,0.255026,0.00331629,-0.023662,-0.000396371
-0.10328,-0.0372523,0.244976,-0.011414,0.00963101,-0.0196427
-0.0359586,0.0190474,0.0942127,0.00536814,-0.0180589,0.000246108
0.13345,0.0517156,-0.0880712,0.00234608,0.027417,-0.000335455
0.137805,0.0503602,-0.250451,0.00120126,0.0414656,-0.00176215
0.160734,0.00564649,-0.153913,-0.0128957,-0.0162132,-0.0112393
-0.00456422,0.0263332,-0.00187765,0.0139081,-0.0362768,-0.0255879
-0.0184178,0.010323,-0.000758207,-0.00510977,0.00802954,-0.00416642
-0.00561857,-0.0281327,0.00488225,-0.00386772,0.00630145,-0.0110163
0.0464647,0.0230563,-0.0208967,0.010695,-0.0265129,0.00998646
-0.0642984,-0.000341758,-0.0104761,0.00631493,-0.0129443,-0.00188839
-0.0821077,-0.0301448,0.0430737,-0.00963448,0.0161043,-0.00309587
-0.0222582,-0.0279998,0.0731979,-0.0105582,0.00909688,-0.00388956
0.031659,0.0166927,-0.00168036,0.0259208,-0.0173733,-0.000700474
0.028258,0.0294508,-0.0370324,-0.0239518,0.0108709,0.00330001
0.0592185,-0.00366352,-0.0238814,0.00917754,-0.00501862,-0.0130402
0.0155143,-0.000432217,-0.0272704,-0.0018857,0.00272875,0.00280434
0.014438,0.00383781,-0.0294393,-0.00462572,0.00710231,0.00297099
-0.030087,-0.00140134,0.00888959,-0.00111229,-0.0101924,-0.000760496
-0.00547159,-0.0152732,0.0283049,-0.00653407,-0.0095955,-0.00501204
0.0223494,0.0146452,0.0453104,-0.00512286,0.00718679,-0.0123178
-0.00856193,0.0149768,0.221486,-0.0148161,0.000100046,0.000176668
-0.0814502,0.0291011,0.32583,0.0533179,0.0202014,-0.0498073
-0.0447254,0.0713178,0.0489644,0.0348593,0.0102337,-0.00505406
-0.241914,-0.0983721,0.0525327,-0.00304765,-0.0212262,-0.0182858
-0.12586,-0.0194499,0.0310861,-0.00491601,0.0264992,0.0482014
0.00969029,0.0264405,0.0654866,-0.0104513,-0.0299774,0.0112503
-0.328891,0.0812391,0.102329,-0.00344674,-0.0377281,0.0269645
-0.018283,-0.0654688,0.0285825,0.0135445,0.0388949,0.0272942
0.106739,-0.0294571,-0.0929858,-0.0113173,0.0378553,0.00675517
0.197988,-0.0862435,-0.152111,0.00253117,2.16663e-05,-0.014783
0.00927788,0.122445,-0.0120674,-0.0182138,-0.0304709,0.000374913
-0.0553892,-0.048297,0.0582477,0.00380243,-0.019924,0.0369525
0.0769289,0.00688517,-0.0922634,0.00242221,0.0349725,-0.0018295
0.0694382,0.0709638,-0.103391,-0.00897127,-0.00414443,-0.00980717
-0.00134635,0.0434257,0.000160184,-0.00698175,0.00411282,-0.00159311
-0.424008,0.0620032,0.0561527,-0.0125873,-0.063561,0.0238715
-0.578384,-0.12444,0.271543,-0.0120929,-0.0561641,-0.0191579
-0.0690028,0.0891142,0.441949,-0.00889816,0.062513,-0.0272148
-0.00579514,0.0116448,0.149933,0.0282665,0.0375971,-0.0258188
0.641791,0.0257258,-0.0699725,0.0506114,0.0489944,0.0676435
0.650016,0.0346208,-0.477077,-0.0252439,0.0448932,-0.00741154
-0.130558,0.00178611,-0.0438593,0.00911141,-0.147992,0.0368344
0.283695,-0.10829,0.105849,-0.00100611,0.0723841,0.0121952
0.194874,0.0102165,0.0310276,-0.0516968,0.062005,-0.0297393
-0.00483589,-0.0570529,-0.0398024,-0.000831485,-0.0106997,0.00485295
-0.0374216,-0.0472855,0.0337346,-0.00658625,-0.0298596,-0.00459129
-0.0361813,0.0211189,0.056802,-0.00697817,-0.0202755,-0.0058617
-0.121782,-0.0825213,0.00586757,0.0195808,-0.00910726,-0.0544031
-0.00987796,0.002844,0.00252931,0.00312565,0.00898957,0.0306699
0.149076,0.0241411,0.0329028,0.00340735,0.0179597,0.0257356
0.0718444,-0.0816859,-0.0436304,0.0188243,-0.0146023,0.0436936
-0.0142254,0.0370002,-0.0148048,-0.00286998,-0.020976,0.0204857
0.0327598,0.0102932,0.00477736,0.00478483,0.0151829,0.00351292
-0.0100123,0.0284384,-0.0222129,-0.000347532,0.0138694,0.00257498
0.0115646,0.0114115,0.0239217,0.00875913,-0.00284933,0.0139734
0.0360717,0.0113936,0.0240124,-0.000730552,0.00851882,0.00293654
0.0431907,-0.0421135,-0.0279668,0.00500905,0.00295879,0.0101753
0.152953,-0.0165597,-0.0277203,-0.0094573,0.0102642,0.00747836
-0.0163572,-0.0153313,-0.0102018,0.00159536,-0.0167258,-0.00432074
0.0540117,-0.00469168,-0.00359501,0.00433424,0.00705665,-0.00813687
0.0645185,-0.0720303,-0.0223493,0.0115428,0.00635464,-0.00403357
-0.0342723,0.0370729,0.0182419,-0.00230867,-0.00518125,-0.00338989
-0.0662994,0.00396941,0.0108584,-0.00387585,-0.001665,-0.0074693
-0.0290874,-0.00569413,-0.00176209,0.00563841,-0.00459924,-0.0087105
0.0047859,0.00703125,-0.0401813,0.0017479,0.0132166,-0.00342381
0.0345046,-0.0464268,-0.0546819,0.00668577,-0.0136778,-0.0507136
-0.00235962,0.0071281,0.0121454,0.00990874,-0.026265,6.55055e-05
-0.156136,0.0562738,-0.0496505,-0.0212699,-0.00990215,-0.00989228
0.168132,0.0454521,0.0103971,-0.00292205,0.00322118,-0.0100925
0.138846,-0.079638,-0.06476,0.00927822,0.0217659,-0.0181205
-0.038407,0.0744937,0.0361494,0.00264224,-0.0106341,0.0680014
-0.00593959,-0.0057984,-0.0508214,-0.00716936,0.00150248,-0.031814
-0.0339985,0.137548,0.0549882,-0.0139959,-0.0367005,0.0201281
-0.0298957,0.0232186,0.0386488,-0.00743759,-0.010702,-0.0230902
0.0145572,-0.000398927,-0.00911224,0.00294544,0.00726539,0.00709546
-0.171855,-0.0685977,0.00559085,-0.00219925,-0.0247315,-0.054772
-0.0279656,0.129205,0.173662,-0.0459144,0.00238597,0.0507494
0.304839,0.212057,0.049362,0.0483943,0.00397724,-0.0360861
-0.52594,-0.000831158,0.121357,0.0652498,-0.0461502,0.0679548
0.0535569,-0.08386,-0.0725307,0.00415266,-0.0465909,-0.0389985
-0.143622,-0.233254,-0.0690954,0.0260734,0.0193692,-0.0621356
0.0302238,-0.0838103,-0.0544558,0.0328507,-0.0383401,-0.00392675
-0.0936267,-0.0226005,0.0761029,-0.0261566,-0.0566423,-0.00727755
-0.065154,0.0360332,0.021339,0.00249097,0.0246334,0.0104827
-0.0292791,-0.0570164,-0.0292085,-0.0134307,0.003773,0.00905037
-0.134728,-0.044109,-0.0243462,0.0297055,-0.0437764,0.0233387
-0.0414173,0.063871,0.0682585,-0.0300075,-0.0306471,0.019909
0.0357529,-0.154247,-0.0144449,0.00448132,0.0640332,-0.0743594
-0.0412193,0.0155549,-0.0724616,0.00680885,-0.0226939,0.0336813
0.0463641,0.0262307,-0.038012,-0.00111575,-0.0124313,-0.01252
0.0355116,-0.0101318,-0.0677341,0.00878976,0.0117112,-0.0345494
0.0208514,-0.032474,-0.02277,0.0124315,-0.0110683,0.0163758
0.0316548,0.097862,-0.00968497,-0.0222988,0.0191383,0.011884
-0.141387,0.0874987,0.0976472,-0.00196449,-0.0294494,-0.0128731
-0.273954,0.099217,0.0222844,-0.00494021,-0.0220692,0.00730288
-0.215084,0.145176,0.0628078,-0.0155245,-0.00215673,0.0708789
0.143103,-0.181107,-0.0566062,-0.0257125,-0.0316149,-0.0722091
0.039558,-0.109525,-0.0948551,0.0263043,0.0567377,-0.152896
0.504044,0.0268106,-0.119642,0.0581838,0.0564089,-0.125872
0.345458,-0.0392376,-0.0845475,-0.0112207,0.0590065,-0.0223313
-0.425582,-0.20195,-0.00517945,0.0302464,-0.0569532,-0.0342529
0.182751,-0.014457,-0.0340329,0.0289134,0.0593145,-0.025853
0.0577452,-0.0558037,0.0907746,-0.0315133,-0.0647737,0.0202719
0.127314,0.00266424,-0.0407617,0.000702336,0.016478,0.0199587
-0.0600426,-0.0772459,-0.00461863,0.00314004,-0.0131162,-0.0141069
-0.157936,-0.227725,0.0312469,0.0246968,-0.0189398,-0.00814128
-0.10386,-0.125001,0.155794,-0.00134644,-0.0587119,0.0169135
0.0495927,-0.0407362,0.151548,-0.00317654,0.0244718,-0.0130218
-0.0463413,-0.0876684,0.149356,0.00537103,-0.00227261,-0.0208718
-0.125583,-0.263639,0.277347,0.0212448,-0.0428373,-0.0217541
-0.23888,-0.16188,0.387378,-0.00756401,-0.0240337,0.033924
-0.0890667,-0.0691986,0.308275,0.0119034,-0.0192785,-0.0106723
-0.164719,-0.146042,0.314902,-0.0122466,0.0573784,0.00482929
-0.0412731,-0.0439579,0.102078,0.0080179,0.032211,0.0227463
-0.0174433,-0.0313583,-0.0122364,1.96099e-05,0.000990808,0.000172853
-0.00780551,-0.0890259,0.00099558,0.0156362,-4.59552e-05,-0.0169419
-0.0310763,-0.0152632,0.0228664,-1.53333e-05,-0.00682464,0.00301957
-0.0287769,-0.0237604,0.0517789,0.00789884,-0.0134476,-0.0044322
-0.0211238,-0.0568184,0.0872805,0.00118706,-0.003378,0.00135618
-0.0266564,-0.045126,0.0519257,0.00348774,0.00486255,0.00262976
0.00602825,-0.022823,-0.00792976,0.00524139,0.0124413,-0.00165778
0.00277365,-0.0239059,-0.0175504,0.0029687,0.000497371,0.00033921
-0.00356524,-0.0431097,-0.0067655,0.00253192,-0.0128914,-0.00483143
0.0187698,0.0027875,-0.0176646,0.00269163,0.00938767,0.00548458
0.00702552,0.00706183,-0.0220106,-0.00281356,4.29153e-05,0.0048793
-0.0291385,0.0199235,-0.0126121,0.00215113,-0.0045768,-0.00139457
-0.0398131,-0.00570652,-0.0135554,0.00519009,-0.00376135,-0.00677967
-0.00118223,-0.0248812,0.0337264,0.00417385,-0.000259429,-0.00489634
0.000844924,0.0103324,0.0132046,-0.000523806,-0.00253153,0.00798601
0.0157065,0.0519581,0.000169562,-0.00259787,0.00729805,9.97782e-05
0.0293219,0.0134292,-0.0358566,0.00665665,0.000714928,-0.00795627
0.0249661,0.0304933,-0.0530779,0.00384435,0.00175902,-0.000507832
0.0387877,0.0336782,-0.058389,-0.00173226,0.0026682,0.00488102
0.0439772,0.0517916,-0.0830634,0.00078249,0.00361779,0.00201786
0.0555899,0.0528192,-0.10119,-0.0017643,0.00729978,0.00233263
0.046899,0.0388922,-0.127843,0.00202407,0.000382692,-0.00491178
0.116548,0.0151449,-0.238546,0.0143306,0.0310276,-0.015339
0.0648908,-0.0105986,-0.321912,-0.00137272,0.00232416,0.00995308
0.0482603,0.123042,-0.264078,-0.00506714,-0.0117841,0.0184988
-0.00882919,0.0751533,-0.184914,0.0101604,-0.0115776,-0.0175622
-0.0308831,-0.00911084,-0.123549,0.0130769,-0.00839248,-0.0134733
-0.0125113,-0.0688595,-0.0750123,0.00759676,-0.00981101,-0.00313681
0.0239303,-0.0763005,-0.0385007,0.00401053,0.00443593,-0.00829995
0.0154119,-0.0389107,-0.0409127,0.00262021,2.86698e-05,0.00506872
0.0529591,0.020945,-0.00376357,0.00426351,-0.00494128,0.00577074
0.0124966,0.0765216,-0.00427571,0.000754893,-0.00483567,0.00884819
-0.00537717,0.16098,0.0282326,-0.00367749,-0.00917614,0.00647694
0.276893,0.0582091,0.0224754,0.0161415,0.0372787,-0.0353453
0.0369157,-0.112565,-0.00189121,0.0076787,-0.012135,-0.0066793
-0.0420825,-0.0271069,-0.0347923,-0.00425968,-0.00145146,0.0122088
0.100782,0.0635939,-0.0284353,0.00104782,-0.00287804,0.00145561
0.0629206,0.0359991,0.0570771,0.00262529,-0.0148337,-0.00672668
0.0260756,-0.0218269,-0.040985,0.0107178,0.0269203,-0.0134115
0.193059,-0.267246,-0.425545,-0.0591217,0.0220135,-0.0363148
0.22166,-0.212536,-0.280483,-0.00393674,-0.0798743,0.0507234
0.0559794,0.167212,-0.0463689,0.00912575,-0.0425007,0.00384897
0.0463341,-0.00795467,-0.0399285,0.0156611,0.0372337,-0.0357053
0.0356986,-0.0453225,-0.033315,-0.0012569,-0.0179392,0.000793874
0.0500792,0.0157003,0.0496807,-0.000217676,-0.00706209,0.0134549
0.0707133,0.0264781,0.113797,0.00489217,0.00369367,0.00904119
-0.027298,-0.0150967,0.12011,0.00188965,-0.00156964,0.00955611
0.00859981,-0.0237642,0.065809,0.00749271,0.00969484,-0.0104204
0.0125931,-0.0120981,0.0198065,0.00779761,-0.00505771,-0.00296831
0.0123641,0.0284205,-0.0221265,-0.00216711,0.00959313,0.00231534
-0.0174145,0.0135078,-0.011459,0.00261511,-0.0123343,0.000637293
-0.0289845,0.00821977,0.014176,0.00669779,-0.0075967,-0.00312638
-0.0152872,0.00602879,-0.0114024,-0.00458275,0.0146967,-0.00536942
-0.0334269,-0.0067811,-0.0145935,0.00511418,-0.00156759,-0.000114501
-0.0227357,0.0263298,-0.0115614,0.000804305,0.00503039,-0.000356972
-0.0153761,0.019887,-0.0275185,0.0022677,0.000564799,0.00431716
0.0347396,0.0145197,-0.0208854,0.00760989,0.00303514,-0.0103777
-0.0235206,0.0125281,0.036605,0.00266224,-0.0240632,-0.0423979
-0.0204471,0.0221023,0.0151854,0.00133345,-0.00381498,0.00316548
0.0112069,0.0497557,-0.039365,0.00127113,0.00660256,-0.00184041
-0.0163979,0.0305806,-0.0211802,0.00873458,-0.00556682,-0.00492227
-0.0184411,0.00177097,-0.00390639,0.00646476,-0.00149429,-0.00588983
-0.0323432,0.0167201,-0.0136731,-0.00209194,0.00191575,0.00534207
-0.0440009,0.0017933,-0.0018641,0.00769427,-0.00496216,-0.000919878
-0.146403,-0.00243363,-0.0203855,0.0037795,-0.0019597,-0.00399125
-0.0322834,-0.00462425,-0.00177947,0.00153209,0.000542879,0.0080772
-0.0129927,-0.0377144,0.0198743,0.00326952,-0.00466496,-0.00891775
0.00286369,-0.00999523,-0.00375013,0.00799856,0.00324431,-0.000643015
-0.0728971,-0.0217186,-0.0210527,-0.0019809,-0.00337625,0.00274915
-0.0344374,-0.0121054,-0.00494475,0.00242706,-0.00260344,0.00576997
0.00083751,-0.043072,0.0167567,0.00944224,-0.00288582,-0.00930667
-0.0172669,0.00180178,0.0142616,0.00356781,0.00351673,0.00655603
0.0263165,-0.000397152,-0.0026562,-0.00245158,0.0114871,0.0124653
0.0314422,0.04333,-0.0403172,0.00239439,0.00645785,-0.00077939
0.0130652,-0.0485849,-0.0761163,0.00845714,-0.00636905,-0.010693
-0.119258,0.0935051,-0.122407,-0.0102885,-0.00937261,0.0329162
0.0417488,0.138275,-0.107137,0.00381166,0.0105066,-0.00949299
-0.0228203,-0.0794315,-0.0162165,0.0173869,-0.02896,-0.0116614
-0.0605735,0.0852531,0.0701848,-0.00706203,0.00204676,0.00244325
-0.0187725,-0.0346384,-0.0560267,0.0151449,0.0216085,-0.0158071
0.0102362,0.060464,-0.0244788,-0.00315158,-0.0155101,0.0121886
0.0221648,-0.0227912,0.0177752,0.009846,0.00545061,-0.0287903
-0.0214805,-0.00352144,0.0228287,0.00201195,-0.00328238,0.00566542
-0.0121465,0.00921406,-0.021027,0.00321893,0.00568984,-0.000150681
-0.00991098,0.0135147,-0.00395059,0.00463392,-0.00856362,0.00195342
0.00177994,-0.00786306,-0.0069746,0.00400385,9.74536e-05,0.00188226
-0.00243248,0.00176605,0.000428231,-1.46925e-05,0.000456601,-0.000965238
0.0156752,0.0017506,-0.000572318,0.00154217,0.0036823,-0.00294602
0.00189567,0.0060544,0.0111008,0.000385046,0.00364503,-0.000980437
-0.00245754,0.00282692,-0.00385282,0.000206396,0.00646344,0.00178164
-0.00782079,0.00816021,-0.0103171,0.00664553,-0.00196762,-0.000998616
0.00929259,-0.00251348,0.00156795,0.00493419,-0.00120863,-0.00752473
-0.00347838,0.00284103,0.00362184,0.000946894,-0.000790089,-0.000638247
0.0231647,-0.000381839,0.00481132,0.00486657,0.00476104,-0.00145596
0.0233575,-0.0238223,0.039154,0.00739446,-0.00241344,-0.00146604
0.0084215,-0.00993242,0.0347351,0.00235462,0.00328824,-0.00341928
0.00406466,0.0178116,0.0163763,0.00351059,0.00436069,-0.000493884
-0.0470602,0.0338776,0.0182156,0.00891246,-0.00680445,-0.00402045
0.0031535,0.0199941,0.0420004,0.0064085,0.00473747,-0.000206888
0.0338636,0.0103041,0.0111912,0.00759757,0.00218901,-0.0159819
0.00951405,0.00609608,0.0378389,0.00404076,-0.0046231,5.38826e-05
0.00195259,-0.00781312,0.0218747,0.00334954,0.00569046,-0.0125248
-0.00358111,0.00174265,-0.0134658,0.00269262,0.00227703,0.00465542
-0.0227569,0.0348672,-0.0158891,0.00747466,5.69671e-05,-0.00199902
-0.0110468,0.0647607,-0.0203136,0.00104012,0.002765,0.00441295
0.00698473,0.0401579,-0.0318388,0.00524181,0.00350963,0.00131679
-0.0249195,-0.0409704,-0.0143386,0.00541592,-0.00702482,-0.00783426
0.0347018,-0.0356896,-0.0226959,0.00887173,0.00943547,-0.00452137
0.201923,0.00902307,-0.0373182,0.00134794,-0.00730072,0.0250419
0.0221614,0.0476993,0.0109055,0.00455531,0.0106495,-0.000872791
-0.0762046,0.0252458,-0.0438082,0.00915514,0.0329701,-0.0301278
-0.0787219,0.0542825,0.0671143,0.00184059,-0.0330316,0.0252418
-0.0604897,-0.0546364,0.0967367,0.0211123,0.00541121,-0.0162714
-0.321152,0.0417973,0.152832,-0.00849079,-0.0353363,0.0150002
0.035275,-0.00134573,0.0700396,0.0107911,0.0375889,-0.00495791
0.0155845,0.0124052,-0.0166697,0.00131325,-0.000359282,0.00704056
0.0135552,0.011368,0.000425359,0.00270128,-0.0127073,-0.00339746
-0.0227149,0.00390656,-0.00607256,0.00574435,-0.00591382,-7.19428e-05
0.0388738,0.00166311,-0.0410879,0.0038002,0.0073494,-0.00963712
0.0198445,0.0209454,-0.0177771,0.00452024,-0.00540718,-0.00392431
0.000828929,0.016736,0.00995752,0.0055016,-0.00424275,-0.00256532
-0.0257873,0.00928508,0.0141821,0.00284389,-0.00786884,-0.000530183
0.00603633,0.00601587,-0.00918413,0.00331283,0.0057494,-0.00161976
-0.00354065,0.00602675,-0.00708306,0.00541753,-0.001477,-0.00817579
-0.0077831,0.00710391,-0.00390097,0.00693537,0.00655679,0.000505567
-0.00035845,0.00281609,-0.00918732,0.00595111,-0.00259565,-0.00700998
-0.0194895,-0.00249581,-0.000676448,0.00123602,-0.00237775,-0.000424445
-0.0140997,0.00713165,0.00889535,0.00202288,-0.00974442,-0.00053829
-0.00348632,-0.000365681,0.00257472,0.00580689,0.00555015,-0.00173354
-0.0237484,-0.00889983,0.000417389,0.00521423,-0.0018369,-0.00292361
0.0125206,-0.00357475,0.00692916,-0.000191122,-0.00507036,-0.000185609
-0.000293419,-0.00784561,0.00263555,0.0053743,-0.000480175,-0.00324774
0.000747519,-0.00571699,-0.00164919,0.00333884,-0.00269526,0.00357205
0.0039377,0.00709534,-0.0038575,0.000361681,0.000921756,0.00374871
0.00931862,-0.00143747,0.00583411,0.00600436,-0.0046512,-0.00175291
-0.00562815,-0.00891088,0.00155233,0.00724545,-0.00236122,-0.00658143
0.00820846,-0.0014503,-0.00164787,0.00424397,0.0137256,0.00292951
0.0017935,-0.00679242,-0.00484184,0.00566788,-0.00346687,-0.00173008
0.0337102,-0.00255755,-0.0132995,0.00334322,0.00151333,-0.00135112
0.0177785,-0.00253123,-0.00481047,0.00260174,0.00319409,-0.00197417
0.000759786,-0.00678155,0.000494848,0.0033246,0.00201365,-0.00116247
0.00283814,-0.0100028,-0.00802379,0.00896803,0.000131071,-4.4167e-05
0.0145488,-0.00467414,-0.0101518,0.00746842,0.00825855,-0.00489962
0.0178067,0.00281746,-0.000571823,0.00263852,-0.000149831,0.00470376
0.00929783,-0.00464756,0.00264931,0.00785625,-0.00844771,-0.00610113
0.0412181,0.00599466,-0.00584597,0.00506443,0.0155052,-0.00518304
-0.000325918,0.00389338,-0.00385147,0.00339074,-0.00286493,0.00298315
-0.0120175,-0.00142908,0.00148066,0.00589085,-0.00403526,-0.00163907
0.019927,0.00708544,-0.00272959,0.00461993,0.00457177,-0.0045315
0.00290856,0.00283362,0.00257896,0.0029133,0.0015876,0.00222129
-0.00992799,0.0049653,-0.00603184,0.00775191,-0.00703622,0.00150877
0.0134898,-0.00467188,-0.00908644,0.00546062,0.00656369,-0.0042727
-0.00242674,0.000700336,0.00150228,0.00170909,-0.000692636,-0.00150019
-0.0120435,-0.00250566,-0.00278426,0.00753835,-0.0034554,-0.00145388
0.00282323,-0.00146282,-0.0112846,0.00189027,0.0107328,-0.0017882
-0.0674825,-0.0142216,-0.00718985,0.00411388,-0.00315142,0.00137937
0.00919827,0.000663364,-0.0144802,0.00671826,-0.0103446,0.000422537
0.0018034,0.000687998,-0.00382442,0.00469142,0.0123016,-0.000434697
0.0146065,-0.00465794,-0.000534387,0.00783317,0.0034073,-0.00418836
0.00926061,-0.00252271,-0.00377454,0.00618312,-0.000266433,-0.0059284
0.000733737,-0.00785746,-0.0037715,0.00635695,-0.00398144,-0.00474256
0.0135105,-0.00146175,-0.00590174,0.00159967,0.00384331,-0.00259006
-0.0066872,-0.00890866,0.00261775,0.0040673,-0.00856824,-0.00361562
0.0294898,-0.00895127,-0.00579297,0.00551455,-1.16676e-05,-0.00327754
0.0326901,-0.00147626,-0.00582955,0.00322251,0.00660041,0.000140011
-0.000263708,0.000708016,0.00685267,0.00167246,-0.00454573,0.00328147
-0.00990776,-0.00570914,-0.00168885,0.0064483,-0.00377479,-0.00236106
0.0060773,-0.00144821,-0.00165691,0.00411072,0.000119135,-0.00812554
-0.00451346,0.0124626,0.00783032,0.0067513,-0.000464842,0.00154299
-0.0205241,-0.00462203,0.00467561,0.0109845,-0.00724094,-0.00223833
0.00819985,-0.00572449,-0.00268959,0.00497717,0.00994578,-0.00714082
-0.0119275,-0.0131516,0.0175844,0.00365672,-0.000639662,-0.00259149
0.0124576,-0.0270893,-0.00146752,0.0091929,-0.000489339,-0.00573123
0.0124742,0.0060244,-0.00168151,0.00817531,0.00176424,-0.00739771
0.0262878,0.0188192,-0.0091916,0.00621495,0.00462073,0.00644231
0.0602761,-0.00687116,-0.0249242,0.0028124,-0.00116569,-0.00691146
0.0912249,0.000596607,-0.0173787,0.00636391,0.00198731,-0.00144237
-0.00554615,-0.0110229,0.0154559,0.00407323,-0.0124334,-0.00354743
0.0379937,-0.0367318,-0.00665106,0.00744376,0.0231247,-0.0232879
0.0283747,-0.00576049,-0.0143661,0.00549994,-0.00869206,-0.00438166
0.0526475,-0.052841,-0.0492286,0.00819612,0.00927421,-0.0060848
0.0642058,-0.00697081,-0.0804692,0.00902872,-0.00154176,0.00713372
0.0815166,0.0187244,-0.0388987,0.0030438,-0.00735751,-0.00415969
-0.00971111,-0.00885651,0.0314554,-0.00262287,-0.023893,-0.00616306
0.0307768,0.012474,0.0293304,-0.00183463,0.00449289,0.00854534
0.0306698,-0.00998626,0.0134493,0.00497429,-0.00213003,0.00792807
0.0349407,-0.00464556,0.0144968,0.00501323,0.00768697,-0.0139318
0.0763621,-0.00578615,-0.00777366,0.00322963,0.00624539,0.00245225
0.00844387,0.0221153,0.0355958,-0.00149828,-0.0151864,0.0138077
0.000952591,0.00822727,0.0313832,-0.00285321,0.00275593,-0.00349957
-0.000362237,0.0081555,-0.0102911,0.00276643,-0.000104859,-0.00326186
-0.00686997,0.00919511,-0.0295546,0.00501342,0.00418347,-0.00418437
-0.0642792,-0.0259692,-0.00496735,0.00611675,-0.00952999,-0.00666529
-0.0526472,-0.0249367,-0.0198872,0.00250404,0.00640129,-0.00126016
-0.262147,-0.0353398,0.0488445,-0.00657958,-0.0183483,0.00501734
-0.0674847,-0.0313105,-0.00601137,0.00426213,0.00278459,-0.00704086
-0.224897,-0.0471297,0.0426511,0.00573428,-0.029306,-0.00107449
-0.10031,-0.0280212,0.0280342,0.00492835,0.0252831,0.00182039
-0.00576435,-0.0132236,-0.0208559,0.00380038,-0.00161102,-0.00678688
-0.0740356,-0.0142628,-0.0339267,0.00486121,0.00107023,0.00256383
0.0177289,0.000658658,-0.0133794,0.00755621,-0.0141531,0.000749826
0.0199639,0.00389143,0.00370327,0.00174315,-0.00328514,0.00340408
0.03178,0.0156592,0.0186287,0.00674474,-0.00594725,-0.00717092
0.0901851,0.0262369,-0.0154101,0.00205173,0.0155203,0.00113678
0.0975602,0.0123226,-0.028114,0.00633529,0.00373715,-0.00525159
0.0114491,0.0103094,0.00469699,0.0055287,0.00349337,0.00696021
0.119954,0.0219229,-0.0259548,0.0051176,0.0107195,0.00286734
0.101986,-0.00578934,0.000867615,0.00752421,-0.0156051,-0.0127872
0.106187,-0.000471055,-0.00983382,0.00791298,0.00076589,-0.00330204
0.165731,0.0293535,-0.0333119,0.00444266,0.0137011,0.00370097
0.141076,-0.0101885,-0.0545171,0.0071488,0.00107847,-0.00813973
0.000729002,-0.030288,-0.00255696,0.00404879,-0.0197174,-0.00363761
-0.0437027,-0.0280245,0.0506837,0.00645147,-0.00597039,-0.00250888
-0.0367515,-0.0207022,-0.034813,0.00176296,0.0116312,0.00317496
-0.0783563,0.00922001,-0.0458477,-0.00416507,-0.0156615,0.020763
-0.068898,-0.203365,-0.0487071,0.0128251,-0.00403614,-0.00450993
0.0196146,-0.00475524,-0.0539372,-0.0124827,0.0128897,0.0220436
-0.057189,0.016639,-0.0703919,0.014867,0.00733082,-0.0134777
-0.00452358,-0.0590989,0.0125681,0.00785942,0.00494079,-0.00510544
-0.00534886,-0.000286142,0.0474428,0.00392063,0.00825112,0.00814372
0.0148522,-0.0238092,0.0423251,0.00499107,-0.00176729,-0.0123171
0.00957895,-0.0301979,0.0519634,0.00218721,-0.00842127,0.0064503
-0.0012791,0.0114034,0.0142595,0.000796735,0.00171711,0.00386018
0.0178537,0.0199192,0.00572939,0.00581296,0.00555524,-0.00138998
0.0284349,0.0252299,-0.00708709,0.00207146,-0.00408904,0.00602704
0.0100844,0.0251746,-0.0466881,0.00978111,0.00939696,-0.00763392
0.0110295,0.0400918,-0.0681515,0.000238553,0.00723429,-0.00694811
0.0236812,0.0389744,-0.0905333,0.0026737,0.00379248,-0.00862759
0.0303679,0.02517,-0.0402003,0.00745758,-0.00449923,-0.00758159
0.0678916,0.0508424,-0.00389971,0.00592576,-0.00349121,-0.00336838
0.0294552,0.0113311,-0.0134032,0.00714175,0.000749171,-0.00611728
-0.0654633,0.0177856,-0.0287594,0.00282112,-0.00551215,-0.00807226
-0.0194896,0.0103211,-0.00182904,-0.000202522,0.0034738,-0.0062393
0.0190172,-0.0014139,0.0240359,0.00387008,0.00611037,-0.00432187
-0.00124028,-0.0131498,0.0229657,0.0102383,0.0032014,-0.00727415
0.0286889,-0.0035324,0.0379739,0.00535703,0.00367238,-0.000536144
0.177937,0.0580123,-0.132819,-0.0267947,0.0487197,-0.0331204
0.0173534,0.0293864,-0.078743,0.00983714,0.00682952,-0.0130439
-0.01345,0.00594086,-0.0605423,0.00326407,-0.0116432,-0.00370926
-0.0397464,-0.0131639,-0.0017528,0.00120866,-0.00998763,0.00373328
-0.0237896,-0.0270678,-0.00480853,0.00117384,0.0052135,-0.00430739
-0.0280767,-0.000371274,-0.0114077,0.00897205,0.000820324,0.00396699
-0.0163293,0.00176418,-0.00710463,0.00543576,-0.00261737,-0.00107098
-0.0279403,0.0167569,0.00985118,0.00250852,-0.00651644,0.00384378
-0.00554601,0.00179285,0.0143058,0.00466354,-0.00439441,0.00195891
0.0115185,0.00819296,0.0164651,0.00802723,0.0050222,-0.00377595
-0.00220236,0.027466,0.0365899,0.000888333,-0.00598137,0.000489295
-0.012838,0.0413645,0.0385964,0.0148422,0.00694232,-0.0133508
-0.0532051,0.0702674,0.0564222,0.00583243,0.00250109,0.00673425
-0.105246,0.078901,0.0839501,0.00645924,-0.00805709,-0.00162518
-0.686342,0.040019,0.199556,0.00053063,-0.0744498,0.00564849
-0.10154,-0.0149406,0.177528,0.0102967,0.0394361,-0.0251651
-0.0693457,-0.00239324,0.0365324,0.0049409,0.0194947,0.0010978
-0.0152928,0.00709405,-0.0124755,0.0129865,0.00608081,-0.00429511
-0.0108726,0.00393315,0.0142722,0.00374287,-0.00926398,0.002581
-0.00450567,0.00285364,0.0100273,0.00389203,-0.00304347,-0.001472
0.0146171,0.00388952,0.000478584,0.00283401,0.00230104,-0.00231642
0.00931077,-0.00464467,0.00478804,0.00605282,0.00360714,-0.0042007
-0.00875743,0.0103347,0.0110341,0.0131992,0.00592934,-0.00833446
-0.0152152,-0.00356325,0.0014829,0.00821339,-0.00681593,-0.00231391
-0.00455819,-0.000367013,0.00150284,0.00496377,-0.00257532,0.00326324
0.0188441,-0.0153488,-0.00365436,0.00669679,0.00155841,-0.00458664
0.0369667,0.00172872,-0.00369714,0.00348729,0.0059922,-0.00142044
-0.0141681,-0.00250256,-0.00172303,0.00569144,-0.00420783,-0.000144124
0.00402625,0.0049843,0.0111164,0.00834395,-0.0013653,0.00185066
0.0305611,-0.010018,-0.00471445,0.00866081,0.00639002,-0.00500917
-0.00773676,-0.00249492,0.00470903,0.00620687,-0.0020906,-0.00482804
0.0103331,-0.0142702,-0.00155689,0.00661212,0.000764459,-0.00271773
0.0337694,0.000663497,-0.00370343,0.0060378,0.00311571,0.00223404
-0.00775954,-0.00997854,0.00155355,0.00595917,-0.00989857,0.00241339
0.0220571,-0.00786963,-0.00155487,0.00915661,0.00108534,0.0025267
0.00823788,-0.00678266,0.00373057,0.00465399,0.00720912,-0.00256813
0.00929304,-0.00144484,0.00156008,0.00332487,0.000704631,0.00223792
0.00181112,-0.00999163,-0.00161521,0.00507602,0.00260198,-0.00157219
0.0326868,-0.00788498,-0.00578896,0.00589594,0.00257331,-0.00516862
-0.00136846,-0.00143978,0.00045395,-0.00219619,-0.0135378,0.0108121
0.0210076,-0.00145611,0.000536888,0.00681567,0.00203778,0.000340164
0.0220528,-0.00359849,-0.0026515,0.00596459,0.00685439,-0.00358194
-0.0130457,-0.00355389,0.00790213,0.00149006,-0.0043591,0.00128096
0.0082196,-0.00465093,0.000509344,0.00545207,0.000267029,-0.00243229
0.012487,0.00602808,0.000455509,0.00554997,0.00589389,-0.00248641
-0.017325,0.000717115,0.00465174,0.00703073,-0.00519502,0.00160849
0.00712097,0.00602102,-0.00597551,0.00575912,0.00503778,-0.00134671
0.0071599,0.00710018,0.000428802,0.00363794,0.00387818,-0.00255948
-0.0162859,-0.00142846,0.000397739,0.00532678,-0.00431263,-0.00532889
0.0231046,0.00707643,-0.0059208,0.00513189,0.0050066,-0.00439376
-0.0269338,0.000717869,0.00141221,0.00504117,-0.0026623,-0.0026297
-0.0130724,-0.00569737,0.00364137,0.00773141,-0.00559023,-0.00139147
0.0380215,0.00599723,-0.00585833,0.00879848,0.00854315,-0.00125349
-0.0141645,-0.0078406,-0.000622233,0.00243987,-0.000757217,-0.00227445
0.0124702,-0.00252227,-0.00162373,0.00534427,-0.00360653,-0.00278342
0.0316592,0.00387478,-0.00052577,0.00562094,0.0113703,-0.0017485
-0.0173173,-0.00996252,0.00686094,0.00588737,-0.00586244,-0.00273854
0.0273512,0.027362,-0.0103115,0.00604963,0.000101507,-0.00212669
0.230993,0.0101576,0.0129998,0.0117105,0.00736231,-0.0334817
0.0812707,-0.0675462,0.105899,0.00632823,0.011688,-0.0131849
0.0148573,0.0114358,0.0399633,0.00631046,0.016137,0.00663555
0.0135239,-0.000390005,-0.00377136,0.0091867,0.00140989,-0.00297523
-0.0107857,-0.0141985,0.0304175,0.002303,-0.00683145,-0.00443935
-0.0395136,-0.00775626,0.0366782,0.00309375,-0.00171444,0.000737667
-0.0638972,0.00938659,0.0557082,0.00556567,-0.00569113,-0.000801444
-0.0245861,-0.0131042,0.0389046,0.00176089,0.000979334,-0.00149679
-0.00552749,0.000730874,0.0175168,0.00496618,0.00629263,-0.00302559
0.0103469,0.000686844,-0.000586319,0.00862823,0.000892192,-0.00504023
0.00715029,0.000689241,-0.000598303,0.0050106,0.00278002,-0.000248611
0.0178355,0.00923408,0.00366047,0.00786433,-0.001625,0.00279248
-0.00351255,-0.00144062,-0.00169372,0.00636673,-0.00183159,-0.000862479
-0.0162615,-0.00355708,0.00468476,0.00641212,-0.00518416,-0.00290936
-0.00666801,0.00391331,0.00467177,0.00738376,-0.00624695,-0.000989437
0.00927512,0.000684935,-0.00165697,0.00638252,0.00198348,-0.000109196
0.0103597,0.000690306,0.00155117,0.00449665,0.0119022,-0.00417393
-0.00240686,0.00177324,0.00470264,0.00436044,-0.00297284,-0.00618988
0.0135478,-0.00358669,0.000522298,0.00809017,-0.00204685,-0.00301784
0.0263507,0.00388477,0.00265878,0.00436226,0.0053477,-0.00312793
-0.00882317,-0.00570377,0.00151929,0.00751708,-0.000679463,-0.00104547
0.0135446,0.00282048,-0.000587422,0.00467451,0.00199236,-0.00286049
-0.00560022,-0.00463184,0.00580104,0.00495565,-0.0055716,-0.000932336
0.0146036,0.00281848,-0.00165331,0.00417359,0.0016266,0.000104427
0.00181632,0.000690972,-0.00168588,0.0053727,0.00191045,-0.00299877
-0.00989133,-0.0110441,0.0015503,0.00651403,-0.0028989,-0.00280887
0.0167294,0.00495132,-0.00272744,0.00508219,0.0093537,0.000714242
-0.0205449,-0.00783239,0.00149138,0.00718264,-0.00382003,-0.00216323
0.00499316,-0.000384945,-0.00487292,0.00911267,-0.00290608,-0.00194252
0.0199315,0.00281351,-0.00163125,0.00554563,0.0113708,-0.00421727
-0.0226765,-0.00889885,0.00149003,0.00575481,-0.00481868,-0.00324202
0.00607697,-0.00251747,-0.0016477,0.00492842,0.000371784,-0.00123638
0.00718406,0.00390203,0.0047256,0.00612833,0.00438526,-0.00339293
-0.0152045,-0.00783234,0.00364761,0.0040925,-0.00446668,-0.00419623
-0.000313134,0.00389711,-0.00171455,0.00395048,0.00165465,-0.00431144
-0.00892586,0.00601414,-0.0167196,0.00516868,0.00689924,0.000206053
0.00913164,0.00812048,-0.0262823,0.00864229,-0.00405271,-0.00304997
-0.0396579,-0.0280913,0.0143726,0.00408815,-0.00720374,-0.0150935
-0.0162327,-0.00995719,0.0100692,0.0078678,0.015885,0.00165099
-0.0440053,-0.00675185,-0.00180957,0.00383428,-0.0104832,0.000205874
-0.00684168,-0.0110897,-0.0230116,0.0061741,0.0106243,-0.0026539
0.0154082,0.00487733,-0.0454694,0.00721821,0.0122816,0.00314885
0.0369416,0.0540555,-0.0125845,0.0136666,0.00690639,-0.0192821
-0.0365952,0.0242023,-0.0126687,0.00681396,0.00859551,0.00446618
-0.0121139,-0.00252542,-0.0145389,0.00457601,-0.00868845,-0.00154644
0.0729043,0.00909364,-0.05276,0.00591201,0.0154972,-0.00307953
-0.000282933,0.000702689,0.00364672,0.00608845,-0.00327152,0.00057745
0.0305547,0.00279691,-0.00693512,0.00780286,-0.00219582,-0.00453526
0.0177821,-0.00786967,-0.00370882,0.00596377,-0.00010857,-0.00605214
0.00504111,-0.00677928,0.00371649,0.00327025,-0.00208542,-0.00374401
0.0125241,0.0039039,0.00687793,0.0068901,-0.00344464,-0.00237507
0.00194304,-0.00140787,0.0196966,0.00760844,-0.00557008,-0.00411475
0.0242773,0.00390248,0.0122684,0.0059462,0.0104678,-0.00698274
-0.00450438,-0.00782764,0.0111675,0.00675909,-0.000233829,-0.00600797
0.0306113,0.000676368,0.00269686,0.00418204,0.000971884,-0.00289476
0.00299683,0.000724128,0.0175495,0.00904486,-0.00470161,-0.000488698
0.0232388,0.00711567,0.0165167,0.00579186,0.00368527,0.00262201
0.0104294,0.0124593,0.012159,0.00535388,0.00684369,-0.00583059
-0.0172292,0.0007453,0.0206782,0.00547184,0.000935048,-0.00299209
-0.00658921,-0.00460783,0.0186168,-0.000503719,-0.00456217,0.000757456
0.017795,-0.00786639,-0.00157095,0.00571129,-0.0017945,-0.00299656
0.0262953,-0.00467587,-0.00583313,0.0076628,0.00385018,-0.00651294
0.0187976,0.00706764,-0.0134183,0.00706413,0.00564459,-0.00348556
0.0124232,0.00600886,-0.0102279,0.00268757,0.00836778,-0.00130522
-0.00564036,0.0177863,-0.00289423,-0.00252464,0.00319672,-0.00486523
-0.00574421,0.00173537,-0.0188171,0.00637865,0.00729936,-0.00600821
-0.00252205,-0.011076,-0.0133797,0.00887421,0.00110915,-0.00499982
-0.0131137,-0.0110482,-0.00273753,0.00348182,-0.000277951,-0.00616962
0.00824569,-0.00357523,0.00477617,0.00242123,-0.000597149,-0.0042693
0.0135436,0.0135001,-0.00172408,0.00602432,-0.00264831,0.00181741
0.0177587,0.00921184,-0.00916134,0.00463647,0.0113384,0.00101829
-0.00566059,0.0028278,-0.00493402,0.0128295,-0.005229,-0.00141048
0.0272416,0.012377,-0.0273088,0.00464422,0.00566953,0.000835061
-0.0172492,-0.0013977,0.0174888,0.00555594,-0.0120813,0.000175953
-0.0224373,-0.0163055,0.0421402,0.00436331,0.00472876,-0.000655591
-0.0269424,-0.00355602,0.000369831,0.000869721,0.00334693,-0.00144017
-0.00986673,-0.000357071,0.00468748,0.00871138,-0.00251669,-0.00357825
-0.0141294,0.0113945,0.00352669,0.0060463,-0.00151956,-0.0036763
-0.0556537,0.0103668,0.00872012,0.00841336,-0.00229388,-0.0137503
0.0239254,-0.0090147,-0.0453493,0.00800045,0.0172543,0.00489378
0.0220357,0.000668956,-0.00588515,0.0100412,-0.0147491,-0.0126641
-0.01844,-0.0858079,0.00414062,0.00407018,0.000919372,-0.00781953
0.0756518,-0.109592,-0.117156,0.00297667,0.0242718,-0.00345552
0.0403408,-0.112813,-0.141841,0.00478348,-0.0210134,0.0159786
0.020802,-0.0164688,-0.0324881,0.00450312,-0.0139506,0.00551713
-0.0112045,-0.0335445,-0.0378409,0.0268313,0.00600648,-0.0343358
0.103906,-0.405166,-0.532896,0.035902,0.107343,-0.0238929
0.216627,-0.0182409,-0.961295,0.005348,0.0633502,0.0791635
0.227685,0.386032,-1.28655,0.00795788,0.0437307,0.0439962
-0.0400451,0.0677411,-0.77156,0.039472,-0.255587,-0.0693604
-0.0156478,-0.214405,-0.230072,0.038787,-0.0475635,-0.0307835
-0.0760179,0.0442135,-0.192445,-0.0142164,-0.000546429,0.0420773
-0.105484,0.114077,0.0409833,0.00733471,-0.0181523,0.0194368
-0.0148439,0.279575,0.0381128,0.00477298,0.038109,0.0641266
0.606159,0.302237,-0.1734,-0.019373,-0.0816954,-0.0569097
0.475046,-0.000692451,0.0225316,0.0479243,0.00025649,0.015059
0.239691,-0.06563,0.0487846,-0.00719681,0.017581,-0.00554347
0.0629918,-0.0230346,-0.103874,-0.0100004,-0.02733,-0.0183328
0.137958,-0.117279,-0.209827,0.0259773,-0.0203233,-0.0148928
0.324007,0.224989,-0.48808,-0.0282845,0.00254597,0.0327237
0.654422,0.580248,-1.21462,0.0121145,0.00338303,0.0381923
1.06254,0.373817,-1.19145,0.0487426,-0.0653314,-0.121235
0.270724,-0.46021,-0.784069,-0.0175226,0.0607865,0.0308415
-0.170172,-0.80234,-0.537758,0.0882182,-0.0133678,0.00923115
-0.1125,-0.441657,-0.725793,0.016741,-0.0680062,0.00772506
-0.162793,-0.822483,0.163303,0.120912,0.0115007,-0.0153557
0.453819,-0.707204,0.990774,0.0259207,-0.117592,0.0167704
-0.266511,-0.642591,0.976974,-0.0210428,0.0486595,-0.00511587
-0.523546,-0.597923,0.753485,-0.0590872,0.0481096,0.0312905
0.130393,-0.66899,0.712587,-0.0257962,0.00374666,0.0130444
0.186689,-0.687553,0.506708,0.0988938,-0.0116689,-0.087122
0.140317,-1.02656,0.266195,0.0176945,0.0838152,-0.0702324
0.166,-1.19881,0.122101,0.0378128,0.106167,-0.0365887
-0.332979,-0.78413,0.0309964,0.01301,-0.0487961,0.113667
0.788106,-0.152026,0.35911,-0.0199968,-0.0388808,0.113915
1.18068,0.0696525,0.238409,-0.00487781,0.110526,-0.0360861
-0.276979,-0.365328,0.0925983,0.0308456,-0.0250698,-0.153415
-0.995395,-0.760036,0.0839195,0.0376913,-0.0222118,-0.0593278
-1.49939,-0.726549,0.0786097,0.0312905,-0.0246809,0.0124164
-2.01824,-0.70923,-0.626486,0.0191857,0.00242168,0.0407283
-1.84584,-0.37575,-1.0479,0.00884658,-0.0231164,0.00843608
-1.17139,-0.226117,-0.707647,0.0283579,-0.105198,-0.00999177
-1.66314,0.140742,-0.65524,-0.035596,-0.00811896,0.122343
-0.731762,0.207984,-0.283572,0.029515,-0.030352,-0.0457196
-0.544914,0.0950553,-0.0310559,-0.0317889,0.0531271,0.109115
-0.181146,-0.110158,0.0592494,0.0134037,-0.00661895,-0.0121951
-0.17421,-0.0173954,-0.0364196,0.00446439,0.0177433,0.000121415
-0.139101,0.0295556,-0.0494123,0.00746816,-0.011281,-0.00221103
0.380897,-0.0211595,0.494566,0.0158031,-0.161008,-0.0642005
1.0794,0.449225,1.62135,0.0150396,-0.32287,0.26792
7.10246,1.01341,1.88384,0.0646611,0.264531,0.110624
5.25236,3.04162,-0.32121,0.179332,-0.503452,0.219649
1.74474,2.29314,-0.427789,0.151593,0.276288,-0.339373
0.910524,1.04814,-0.480534,0.106939,0.0855837,-0.319608
0.28147,-0.186906,-0.259056,-0.066018,0.0407439,-0.216497
-0.135752,-0.421113,0.0165582,0.0417216,-0.0156856,0.0122237
-0.0439078,-0.0419685,0.0176508,-0.00586498,-0.0017463,0.054487
0.0285163,-0.0163995,0.0102776,0.0145864,0.00564158,-0.0116766
0.0146428,-0.0601858,0.0105112,0.00138128,-0.00494385,-0.00273126
-0.0589993,0.031686,-0.0181409,0.00312817,-0.00504148,0.015238
-0.0355466,0.0284685,-0.0158973,0.00654274,0.00597703,-0.0120474
-0.0741282,0.00493459,-0.0511461,0.00407016,0.0089556,-0.0101475
0.000489242,-0.0623986,-0.0397462,0.0124517,0.000614405,-0.0229248
0.015704,-0.0687322,0.0105707,0.0072428,-0.00843245,-0.00658268
-0.0194869,0.0156622,-0.00186386,0.000436664,0.00425786,0.0202292
0.0167586,0.102152,-0.00656321,0.00449294,0.0107241,-0.000396729
-0.0217043,0.0348634,-0.0180236,0.00685894,-0.00253469,-0.0193511
0.00632554,-0.029145,0.0423304,0.00607109,-0.0177303,-0.012228
-0.0284069,-0.012974,0.112616,0.00603479,-0.00941837,0.0037601
0.0340598,0.031721,0.0420401,-0.00222975,0.0316219,0.00362283
0.0142118,0.049697,-0.0714062,0.000885546,0.0133997,0.00545448
-0.0673655,0.0798008,0.00395207,0.0120983,-0.0309902,-0.00147802
0.0196786,-0.00166495,0.49095,0.0231177,-0.13988,-0.0191028
0.0836986,0.0306653,0.681165,0.0289356,0.00647789,-0.00297344
0.0283655,0.03331,0.336899,-0.0012542,0.0746242,-0.0120777
-0.0061672,-0.094201,0.097198,0.012041,0.0231821,-0.0342385
-0.0603918,-0.0346275,-0.0668636,-0.00687194,0.0556399,0.0492305
0.0594348,0.618308,0.134494,-0.0153599,-0.042781,0.201019
0.456375,1.8417,0.476361,0.0263877,-0.0726028,0.173278
0.419701,1.68215,0.237926,0.119401,0.0310023,-0.153937
0.339992,1.15693,-0.215194,-0.0489311,0.233067,0.000542045
-0.00848599,0.211961,-0.139854,0.0937378,-0.170073,-0.238849
-0.142565,-0.409173,0.123305,0.02564,0.00955486,-0.0485564
-0.545059,-0.446038,-0.36304,0.0565602,0.131155,-0.182795
-0.14517,-0.535649,-0.122698,0.0403105,-0.137538,0.0839835
-0.153922,-0.457431,0.0103188,-0.00628632,0.0559698,-0.02171
-0.136522,-0.313468,-0.121969,-0.00188679,0.0172302,0.0654835
-0.0850655,0.397142,0.0445683,-0.0172248,-0.0396048,0.159275
0.20226,0.848911,0.121779,0.0442159,0.0169065,0.0133775
-0.0767624,0.219019,0.201749,0.0179871,0.0428703,-0.177861
-0.0539518,-0.235409,-0.0409645,0.0166608,0.0616389,-0.0387943
-0.927571,-0.588553,-0.171227,0.0459618,-0.0478518,-0.186549
-6.18881,-1.33307,-0.599588,0.103226,-0.17287,-0.102847
-4.3118,-0.700058,-1.2591,-0.0153194,-0.174794,0.271767
-1.58898,-0.330132,-0.505529,0.0293045,-0.0225464,0.0488001
-0.916692,0.11641,-0.197126,-0.0178569,-0.00819874,0.0426382
2.20202,0.323689,-0.0425514,-0.0360203,0.233414,0.0910906
-1.4423,0.191346,0.279084,0.0698334,-0.434434,-0.0751131
-2.53185,-0.309986,0.222698,0.0573027,0.104375,-0.0304034
-1.79356,-0.0591407,-0.173627,-0.00723368,0.0649083,0.0231122
-1.61357,-0.140917,0.175891,-0.00912523,-0.00547898,-0.0353045
0.804302,-0.471009,0.601643,-0.027664,-0.194438,0.032288
-1.6772,-0.394975,0.248887,0.00887287,0.130484,0.0583293
0.068145,-0.1003,-0.304222,-0.017728,0.118768,0.136257
-0.147122,0.21065,-0.338026,0.0183426,-0.0339651,0.0349783
-0.0747473,0.24337,-0.532424,0.044881,0.0250417,-0.0592655
-0.440396,0.121526,-0.729598,0.0246181,0.0747346,-0.0241032
0.0170937,0.585579,-0.884752,0.00158906,0.0697962,0.0608132
-0.0585434,0.449999,-0.870265,0.0260025,-0.0557991,-0.00796378
0.00278361,-0.0362766,-0.371122,0.0389664,-0.107378,-0.120089
0.270532,-1.0597,0.306433,0.0527188,-0.159815,-0.104594
0.0845971,-1.4326,0.784681,-0.0194298,-0.1117,-0.0207045
-0.75783,-1.15202,0.824584,-0.0609674,0.224586,-0.00412667
0.0909049,-0.786332,0.177911,-0.0451235,0.165324,0.0998333
0.323291,-0.244536,-0.209374,-0.00839937,0.0249003,0.130182
0.147482,-0.0497083,-0.0488921,0.00631219,-0.0350443,0.0289268
0.0837463,-0.0399913,-0.0171389,0.00653398,0.0334396,0.00207663
0.00530479,-0.0262403,-0.128641,0.0105029,0.0267304,-0.0121269
-0.00127637,-0.0444473,-0.158463,0.00184995,-0.0072341,-0.0139658
-0.0422968,0.00380203,-0.0734543,0.00527912,-0.016024,-0.00794172
0.564085,0.0268716,-0.057443,0.0039233,-0.000565588,0.00647151
0.0770865,0.052854,-0.0701178,0.00575382,0.00125515,-0.00562215
0.0154166,0.0465313,-0.0478722,0.00704169,-0.0144607,-0.013948
0.0115278,0.026351,0.0163502,-0.0009619,-0.0135739,-0.019628
0.00627147,0.00287894,0.0303725,0.00440526,-0.00177956,-0.013832
-0.0966404,0.115986,-0.0840006,0.00959599,0.0361354,0.0295627
-0.0161671,0.188404,-0.174987,0.00956452,-0.00270188,-0.00327754
0.00530594,0.168143,-0.145927,-0.00180399,-0.00758404,-0.0111037
0.510389,0.191712,-0.498915,0.0193149,0.170441,0.0119832
3.1568,0.298695,-1.09444,0.0726146,0.0976539,0.0433367
3.52855,-0.0067685,-0.908364,0.0353243,-0.0700322,0.124113
1.003,0.0664815,-0.428945,-0.00842118,-0.0800533,0.0367973
1.09898,0.0517916,-0.23617,0.00267202,-0.0368069,-0.0162205
1.26893,-0.0667331,-0.135396,0.00574309,-0.00539073,-0.00689167
0.505427,-0.0564078,-0.0592584,0.00163245,-0.0329772,0.0121654
0.0113223,0.0113379,-0.016674,-9.42945e-05,-0.0308544,0.00804061
-0.2951,-0.00752648,0.0592319,0.00670755,-0.00888047,-0.0203741
0.0658881,-0.0270872,0.024381,0.000271738,0.000714004,0.00322682
0.000730333,0.0102964,-0.00602242,0.00586116,-0.00450456,-0.00429398
-0.00475057,0.0102548,-0.0316837,0.00324488,-0.00387844,-0.00145078
0.0871491,0.0401692,0.0101338,0.000688612,-0.00267205,0.006414
0.380492,0.0443149,0.064629,0.000584483,-0.0209463,-0.00860649
-0.282837,-0.0105803,0.150114,0.0106893,-0.000757098,-0.0462271
-0.056615,-0.0120327,0.0280976,0.00622916,0.011174,0.0277593
0.683314,0.0125531,-0.252429,-0.00813836,0.0767533,0.028001
-0.668126,0.0526708,-0.497081,0.0160792,0.048674,-0.0487434
-1.50812,0.0357972,-0.736245,0.0075556,0.0424837,-0.0172125
-0.184609,0.464815,-0.393236,-0.0153896,-0.0685914,0.0862572
1.20567,0.632317,0.0906184,-0.021949,-0.052688,0.0587651
-0.319013,0.16017,-0.569126,0.0466323,0.147537,-0.172602
-0.942026,-0.188829,-0.664288,0.0306521,-0.0312075,-0.0149664
0.117162,0.177974,0.0275188,-0.00919753,-0.15323,0.0821505
0.571792,0.545427,0.828173,-0.00116485,-0.146344,0.0610437
1.37858,0.597342,0.322276,0.0561241,0.267047,-0.103792
-2.04297,-0.272451,-0.702057,-0.0136064,-0.00936344,-0.0862105
-0.933296,-0.00720845,-0.646201,0.011271,-0.0219128,0.0699812
0.827302,0.337037,0.277024,-0.00695091,-0.222892,0.0599768
0.510595,0.366663,0.588703,0.0275887,0.0455007,-0.053002
-0.680897,-0.0524275,-0.128902,0.00875038,0.10875,-0.0681502
-0.167375,0.0251359,-0.144578,-0.007195,-0.0246532,0.0427832
0.125129,0.173845,0.113051,0.0101285,-0.0530558,0.000279427
-0.0610155,0.056284,-0.0012087,0.00649107,0.0480984,-0.0348473
-0.15468,-0.0421873,-0.153708,0.0116563,0.0123831,-0.0192339
-0.0929829,-0.122366,-0.163644,0.00751531,-0.00900909,-0.0196118
-0.374341,-0.0246703,-0.00506058,0.00162411,-0.0594116,0.0141789
-0.365314,0.0491658,0.0724891,0.00458801,0.0119623,0.0039587
0.460417,0.051734,0.0659489,-0.00337231,-0.0107019,0.0132866
0.116716,-0.000205493,0.147269,0.0236527,-0.0379376,-0.036732
0.057145,-0.0944313,-0.00619954,-0.00321865,0.0339607,-0.0108759
-0.12656,-0.0420864,-0.0841556,0.00447237,0.00551285,0.00400066
0.0121859,0.0807007,-0.0566529,-0.00062561,-0.0257197,0.0173509
0.126158,0.189854,0.105472,-0.0070889,-0.0214452,0.0207924
0.0831471,0.202589,0.0389849,0.00434399,0.039487,-0.00826186
0.0957808,0.0665827,-0.152408,0.00957066,0.00869629,-0.0411822
0.0857396,-0.00906086,-0.0429731,0.0113863,-0.0169246,-0.00704664
0.0501545,0.0627122,0.0579313,-0.00198215,-0.033317,0.0270529
0.532495,0.292947,-0.0186855,-0.0109065,0.0421991,0.0306101
3.89292,0.695449,0.092791,-0.0332987,0.0598561,0.109593
-4.38158,0.461287,-0.560647,0.0598797,-0.0285469,-0.168509
1.94728,-1.27611,-1.16034,0.0805997,0.321704,-0.376725
0.633994,-1.25401,0.522746,0.19827,-0.406347,0.201153
1.56201,0.570464,2.13415,-0.167081,-0.209467,0.296057
-1.43502,-0.401521,-0.945757,0.136366,0.935071,-0.442437
-1.9841,-0.0288623,-3.70896,0.0288302,0.427689,0.186749
-0.0499704,0.501672,-2.47003,0.169412,-0.28138,0.0298579
-0.47342,0.380063,0.495181,0.0374425,-0.573598,0.0234935
0.554948,1.57878,1.66014,0.0470092,-0.0528733,0.214029
-2.42485,1.03481,-1.60519,-0.121567,0.19692,-0.0568931
-0.0913044,-0.19041,-0.589506,0.123059,-0.49835,-0.296549
1.36836,-1.38947,2.17712,0.195353,-0.256779,-0.061613
-1.13172,-0.867567,2.06288,0.32959,0.237584,-0.0951439
-1.02045,0.666454,0.933615,0.158425,0.066625,0.281689
-5.43407,0.287795,0.56268,0.166395,-0.255936,0.0672712
-2.42935,-2.66614,-0.776666,-0.200929,0.342062,-0.291795
-0.499577,-2.20661,-0.439064,-0.00141037,-0.142422,0.0197258
-0.168563,-0.316048,0.221971,-0.170404,0.00764263,0.162253
0.260734,0.188779,0.159405,-0.137368,-0.0505024,0.00329626
2.69176,0.272871,0.4308,-0.0662838,-0.042703,0.136855
5.31044,0.671175,0.873949,-0.011274,0.0409669,0.155431
1.76729,1.23982,0.766176,0.0718113,-0.038498,0.0179249
2.30333,1.21914,0.782209,0.115048,0.310023,-0.0958349
2.71918,1.26667,0.650967,0.192279,0.214817,-0.157094
1.04702,0.822583,0.0930623,0.14445,-0.241152,-0.102113
-0.249433,0.131865,0.377962,-0.0123648,-0.0145507,-0.0375304
-0.151341,-0.0290195,0.0470858,0.0573542,0.04064,-0.041155
-0.135354,-0.13401,-0.120988,-0.097737,-0.0116947,-0.0492463
-0.122878,-0.003498,-0.00639465,0.013367,-0.0132356,0.0240437
-0.0833869,0.168446,-0.0105679,-0.0186154,0.0164652,-0.00643975
0.236861,0.0698073,-0.0803155,0.0384873,0.0117687,-0.0186538
0.146477,-0.0660223,-0.215467,-0.0538823,0.0386875,-0.0473444
0.128594,-0.0253563,-0.180538,-0.0101862,0.00377721,-0.00817233
0.0669809,-0.0839968,-0.144062,0.0111013,-0.0111335,-0.000422597
0.0246804,-0.0561028,-0.0931153,0.00843143,-0.0165001,0.00140947
0.00808688,0.0743428,-0.0288465,-0.00304529,-0.0360266,0.0378079
0.00162014,0.0935511,-0.0428857,0.00936304,0.0316584,-0.0210373
-0.0724032,-0.0539295,-0.113793,0.00182801,-0.0348057,0.0271637
-0.150732,0.139908,0.133606,-0.00124615,-0.0764022,0.00675505
-0.0968031,-0.0343434,0.0804464,-0.007184,0.0485135,-0.0319405
-0.00107241,0.0827091,-0.135782,-0.0077419,0.037642,0.00965446
0.00965694,0.0773824,-0.122885,0.0141375,-0.0212395,-0.0132236
0.0685409,-0.0283165,-0.0664186,0.00771587,0.00217602,-0.0114575
0.0269334,-0.00373498,-0.0774195,0.005097,-0.0141707,0.00759882
0.00136926,0.0261915,-0.0787772,0.00442307,-0.00867236,-0.00316119
0.00531957,-0.0259251,0.0519267,0.00452924,-0.0300093,-0.0110171
0.0713545,-0.248133,0.0675012,0.0320821,-9.18806e-05,-0.0406085
0.0670787,-0.211822,0.0619095,0.00140886,-0.000336081,0.0257877
0.00779354,-0.0300983,0.109658,-0.00311774,-0.0121956,0.0194044
0.00901305,0.0607288,0.127238,-0.00190654,-0.00037688,-0.000998497
-0.0306971,0.0393143,0.0812848,0.00276087,-0.00165507,-0.00622863
0.00214307,0.00185295,0.0528014,0.00681373,-0.002909,-0.0110458
-0.00140347,-0.0591249,-0.00023889,0.0028196,0.0122995,-0.0119936
-0.0322633,-0.0291853,0.00372608,0.00375834,-0.0102033,0.00740701
-0.0150199,0.00289989,0.0334993,0.00203212,-0.00294578,-0.0041309
0.0019824,-0.0387805,0.0295606,0.00626749,-0.00673991,-0.00856841
0.0187788,-0.0313896,-0.0131642,0.00125515,0.00725266,-0.00803649
0.0384,-0.0390623,-0.116682,0.0117896,0.0156326,0.0112581
0.0774658,0.0868314,-0.187868,-0.00876328,0.00677359,0.0134468
0.0345242,-0.0207904,-0.0537753,0.0130954,-0.0327978,-0.0219841
0.0116706,-0.0975004,0.0513452,0.0014706,-0.0114052,0.000469387
0.0244847,-0.0419643,0.0510339,0.00153516,0.00106484,0.00226104
0.0234276,-0.0505049,0.0532214,0.00452857,-0.00452226,-0.0102115
0.0351762,-0.0206005,0.0552083,0.0040075,-0.00703746,0.00189602
0.0214421,0.0488664,0.068597,0.00299066,-0.00784755,0.00290084
0.00322674,0.0638035,0.0502673,0.000302896,0.00314581,-0.00338113
-0.000219574,-0.00141776,0.014351,0.00707008,0.00633654,-0.0124167
-0.0108174,-0.0270259,0.0262302,0.00657623,-0.0106816,-0.000267506
-0.0148959,-0.00453957,0.0549157,0.00186373,-0.00863993,-0.00572288
0.00514111,-0.0120926,0.020851,0.00580409,0.0117505,-0.00233924
0.00704565,-0.00468307,-0.0176558,0.00521494,0.00255314,0.00333965
0.0102594,0.00386293,-0.0155604,0.00571212,-0.00586495,-0.00497133
-0.0151188,-0.0163541,0.0186664,0.00533003,-0.0116704,-0.00218385
0.00182145,-0.01533,0.000558707,0.000679672,0.00382227,-0.00371546
0.0188006,-0.000409757,-0.0122973,0.00293654,0.00155827,0.00107729
0.0209887,-0.00146304,-0.00266564,0.0044696,-0.00337255,-0.00170314
0.00716347,0.000690883,0.00154309,0.00314239,-0.00473464,-0.00244093
0.0166392,0.00278661,-0.0176673,0.00127023,0.00183603,-0.00418627
0.00815492,0.0060089,-0.0113095,0.00128365,-0.00582582,-0.00486237
0.00616737,-0.0142417,0.0144597,0.00740947,-0.00441468,-0.00672191
0.00922514,0.0156224,-0.0113691,-0.00108437,0.00426733,0.0048635
-0.000426935,0.00599896,-0.0209586,0.00540185,-0.00481015,-0.00995111
-0.00452237,-0.0313304,0.0102528,0.00710472,-0.00773481,-0.00838536
0.00607188,0.0124323,-0.0038789,0.00268032,0.00955525,0.0078246
0.0080734,0.00918938,-0.0252206,0.0070826,-0.00712904,-0.00986373
-0.0151248,-0.0152874,0.0175902,-0.000332922,-0.0126498,-0.00504428
-0.000300368,-0.00998657,0.00158674,0.00394252,0.00294,0.00320995
0.0102848,0.00387127,-0.0112885,0.0050423,-0.00268996,-0.00330132
-0.00561168,-0.00250061,0.00365332,0.00112936,-0.00696146,0.000735581
0.00496533,0.00708096,-0.0102591,0.00391665,0.00337511,-0.00221705
-0.00248333,0.00174962,-0.00811622,0.00249776,-0.00817531,-0.00379848
0.00185008,0.00390376,0.00363802,0.00128707,-0.00101227,-0.000976562
0.00181135,0.00282359,-0.0027641,0.0016754,-0.00652027,-0.0105137
-0.00237189,0.0199381,0.00886277,0.00141908,-0.00167525,-0.00243437
0.00179594,0.0231116,-0.00716912,0.00165594,-0.00301903,-0.00216424
-0.00902723,0.0326835,-0.0361208,0.0013904,0.00571811,-0.00389588
0.0162969,0.0336591,-0.0777002,0.00334969,0.00475389,0.000785828
0.0680418,-0.00389726,-0.152055,0.0124548,0.0127553,-0.0108491
0.0753012,-0.0445458,-0.181682,0.00477749,-5.51343e-05,-0.00864744
-0.00752791,-0.0166319,-0.137298,0.00255093,-0.0176896,0.00788546
-0.0242798,0.0528903,-0.0940063,-0.00282747,-0.0144177,0.00932747
-0.0135498,0.0614477,-0.0822675,0.00596409,0.000807524,-0.00781107
-0.0266221,-0.0123211,-0.123507,0.0150112,0.000761971,-0.00564933
-0.0148204,-0.0293948,-0.108394,0.00738208,-0.0069778,-0.00175285
0.00378194,-0.0239249,-0.0271593,-0.00108992,-0.0095716,-0.00541025
0.0010185,-0.00136805,0.043203,0.0138279,-0.0215513,0.00034976
-0.0168905,0.0766722,0.0704096,0.00288376,-0.00558275,0.00894964
0.0168256,0.0306105,0.0110001,-0.00315091,0.0126278,-0.0141
-0.00479172,0.00490343,-0.0380615,0.00128436,-0.00338246,-0.0051176
-0.0303363,-0.0409945,-0.0293127,0.0107148,-0.00473371,-0.0172211
0.00176604,-0.0110739,-0.00908532,-0.00714995,0.00460935,0.00468463
-0.0066587,-0.0035617,0.00686011,-0.00379327,-0.00600079,0.00241643
-0.0254774,0.0403462,0.0631354,0.00628808,-0.00703885,0.00644261
0.0351129,0.0060817,0.0422143,-0.00369921,0.00417684,-0.0207731
-0.0287823,0.0285694,0.0461025,-0.00362852,-0.00969055,0.0122076
-0.047956,0.065967,0.043651,0.00749066,0.00170052,-0.000761986
-0.0268541,-0.0195533,0.0165056,0.00302975,-0.00780579,-0.00704241
-0.0109175,-0.0227832,0.00910759,0.00455831,0.00386137,-0.00394267
0.0123601,-0.0185761,-0.0186129,0.00615396,0.00652438,-0.00357592
0.00387154,-0.011083,-0.0133511,0.00244477,-0.00738895,-0.00100803
0.00289446,-0.0131927,0.0016176,-0.00132033,0.0018155,-0.000145018
-0.0110224,0.0102956,-0.0114082,0.00122708,-0.0028812,-0.0010007
-0.00134741,-0.0110476,0.00479334,0.00184628,-0.00713795,-0.000258863
-0.00243316,-0.000372385,0.000446455,0.0049623,0.00447181,-0.00344926
0.00928912,-0.0228087,0.00277092,0.00317128,-0.00406167,-0.00465226
-0.0141183,-0.0056936,0.00684837,0.00146103,-0.00623992,0.000841081
-0.000330428,-0.00572188,-0.00378592,0.00595771,0.0033201,-0.00318605
0.00398337,0.00817445,0.00361936,-0.00170858,-0.000410825,-0.00224864
-0.00878019,-0.00996545,0.00903039,0.00713591,-0.00158149,-0.00325048
-0.00141712,-0.0100002,-0.00696598,0.0115393,0.00631717,-0.00329202
0.00190604,-0.0121007,0.0144269,0.00423092,-0.00642794,0.000175714
-0.00769911,-0.0174385,0.0122894,0.00475542,-0.000281751,-0.0059399
0.000757947,0.00176059,-0.000625676,0.00892234,0.00233787,-0.00605452
0.00615761,0.0049811,0.0111278,0.00481667,-0.0041191,0.00454158
0.0348305,0.00386382,-0.00478525,0.00200081,0.00924093,-0.0067414
0.013584,0.00389715,0.00582222,0.00566855,0.00169285,-0.00124621
0.0316477,-0.00681018,-0.00152251,0.00662082,0.00163433,-0.00270295
-0.00554891,-0.0174344,0.0155024,0.00379887,-0.00843328,0.000110328
0.0199202,-0.00787273,-0.00262524,0.00158514,0.00754094,-0.000895321
0.0401511,0.0156065,-0.00697903,0.00331746,0.00246274,-0.00211149
0.0283782,0.0134632,-0.015555,0.0036414,-0.00163154,0.000921011
0.0292898,0.0251662,-0.0423392,0.00365177,0.0030486,-0.000845253
0.0273109,0.0102603,-0.0155402,0.00315809,-0.0134178,-0.00738132
0.010425,-0.00997286,0.0133772,0.00474958,-0.000874221,0.00172377
0.00710217,0.00601343,-0.00917661,0.00477898,0.00483495,0.0019471
0.012468,0.00602173,-0.00274825,0.00616242,-0.00110549,-0.00747401
0.00185759,0.00604175,0.00469321,0.00373635,-0.00116467,-0.00155121
-0.00136553,0.00389977,0.000422372,0.00153986,-0.0029248,-0.00341481
-0.00670126,0.000697763,-0.00064624,0.00525923,0.000975639,-0.00334203
-0.00140754,0.00922729,-0.00709061,0.000889093,0.000727281,-0.0013656
0.00714273,0.0102969,-0.0027926,0.00529185,-0.0023821,-0.00129163
-0.00559148,0.0124581,0.00569282,0.00780846,0.00233988,-0.00586128
-0.00230436,0.00180178,0.0218008,0.00442392,-0.00158608,0.00175637
-0.00132662,-0.00783749,0.00797814,0.00488922,-0.00093469,-0.00502068
0.00600789,-0.000402433,-0.0134128,0.00767717,-0.00157085,0.000732124
-0.0089345,-0.0121474,-0.016597,-0.000546277,0.000737786,0.00118285
-0.000402949,-0.0100147,-0.0155122,0.00955419,-0.00291112,-0.0104929
-0.00646207,-0.00670898,0.0400042,0.00728622,-0.00879511,0.00761831
0.00513201,-0.00461871,0.0186652,0.00428706,0.00776255,-0.00695848
0.00282526,-0.011077,-0.0101488,0.0057227,0.00597821,-0.00506884
-0.00368085,-0.00683295,-0.0294329,0.000686586,-0.00229074,0.00531793
0.00512132,-0.000349436,0.0165001,0.00281379,-0.00543538,-0.0111181
-0.0086153,-0.0131232,0.0368347,0.00677249,-0.00706789,0.0011605
0.00187032,0.00604579,0.00682946,-0.000332519,0.00689697,0.00181824
-0.0142963,-0.0292415,-0.0207811,0.00904368,-0.00358942,-0.00897157
-0.0185372,0.000673484,-0.0199235,0.00219421,0.00252363,0.0145334
0.00706164,0.00172974,-0.0155602,0.00637004,-0.00420937,-0.012101
-0.00555526,-0.00461999,0.0132828,0.00548401,-0.00192645,0.000403523
0.00927412,-0.00145181,-0.00164236,0.00808276,0.00175068,-0.00539964
-0.00140666,0.0113647,-0.00710665,0.00613581,-0.00206318,0.00509357
0.0071761,0.0263283,0.00137519,0.00842047,0.0050489,0.00459176
-0.00556813,-0.0174397,0.0122964,-0.00137174,-0.00634935,-0.00806922
-0.00563458,-0.00998355,0.000496408,0.00793961,0.00748125,-0.00440425
0.00614,0.00818031,0.00790119,0.00458936,-0.00579004,0.00427926
-0.000400136,-0.00467454,-0.0155451,0.00538297,0.00563449,-0.000590384
-0.0162713,-0.0110381,0.00366858,0.00507252,-0.00742401,-0.0115933
-0.000302748,-0.014258,0.00161159,6.81132e-05,0.00442255,0.000469685
0.0114239,0.0359329,-0.00187576,0.00296201,-0.000183851,-0.00193065
-0.00241953,-0.0110476,0.00371861,0.00490284,-0.00602834,-0.0053755
-0.0184408,-0.0366798,-0.000448691,-0.000571027,0.00016433,-0.00217801
0.000684402,-0.00466886,-0.0123377,-0.000843376,0.0086492,0.00277197
0.0113877,0.0145616,-0.00601103,0.00832874,-0.00242583,-0.0083977
-0.0140487,-0.00674009,0.0186058,-0.000746697,-0.00950837,0.00300676
-0.0142491,-0.0110703,-0.0144895,0.00247821,0.00613111,-0.000155091
0.00598875,-0.0132247,-0.0154663,0.00680164,0.00098221,-0.00787538
0.0241915,0.0113535,-0.00273808,0.00173439,0.00683555,0.00731206
0.084929,0.0155804,-0.00253741,0.00429432,0.00414301,-0.0057292
-0.0109617,-0.00891114,0.000469035,0.00453238,-0.00313717,-9.85861e-05
0.00813568,0.00600367,-0.0145157,0.00204666,0.00597128,-0.00280964
0.00609241,0.00282727,0.000454501,0.000764221,-0.00966337,-0.00375807
0.00824329,-0.00891763,0.00481383,0.00505303,0.00473829,-0.00653237
-0.00244648,-0.00144431,-0.00168354,0.00795981,-0.00392017,-0.0065136
0.00184041,0.0103096,0.00145861,0.00487931,0.000657976,0.00783092
0.010285,-0.00894577,-0.0101357,0.00293171,0.00422347,-0.0112642
0.00298809,0.00819607,0.0153678,0.00026378,-0.00789821,0.00313795
0.0166713,0.015612,-0.0134758,0.00145102,0.00627047,-0.00820011
-0.00778445,0.00389799,-0.00387734,0.00534353,-0.00183317,-0.00026077
-0.00884083,-0.00357537,-0.0016948,0.00452355,0.0071032,-0.0043658
0.00499123,-0.00465883,-0.00484285,0.000600308,-0.00572881,-0.00639504
0.00823687,-0.00891931,0.00374499,0.000828281,-0.00308746,0.00421077
0.0144138,0.0444149,-0.0371791,-0.00278005,0.00611791,0.00494087
0.0188377,0.0487315,-0.0104802,0.000262156,-0.011124,-0.00246024
0.0115236,0.043438,0.0141031,0.0047349,-0.000421733,-0.00022763
0.00511109,0.00498838,0.0143273,0.00787571,-0.00498608,-0.00614822
0.0113057,0.0294901,-0.0210663,0.000495002,0.00488174,0.00223494
0.0134543,0.0262898,-0.0178326,0.00361685,-0.00623342,-0.0065707
0.00518887,-0.00566941,0.0282867,0.00262639,-0.00514475,-0.00535142
-0.012093,-0.024949,-0.00904943,-0.000667721,0.00518332,-0.000150561
0.00800639,0.0155775,-0.037014,0.000404239,-0.00401355,-0.00223219
0.00835793,0.01568,0.0217514,0.00899598,-0.00729823,0.000141263
0.00618136,-0.0110313,0.0165714,-0.00938584,-0.000693038,0.0031305
-0.00148284,-0.0132224,-0.0176321,0.000713885,0.00552411,-0.015085
-0.0141632,-0.0185219,0.000518037,0.00744015,-0.00395769,0.00167269
0.017636,-0.0196628,-0.0271346,0.00177875,0.00389394,-0.000750124
0.0253009,0.0092288,0.00476022,-0.00246444,-0.00778869,-0.000490904
-0.00116542,0.0466806,0.0300605,0.0105216,0.00244452,-0.00827235
-0.00438489,0.000750493,0.0303465,0.015645,0.0049271,-0.00526166
0.0123428,-0.0143077,-0.0218485,0.000399455,0.00503047,-0.00343549
-0.000327324,-0.0377616,-0.000373856,0.00103134,-0.00856012,-0.00673866
0.00201034,0.00501892,0.0303418,0.00544529,0.00215533,0.00348508
0.000775491,-0.00143823,0.0026001,0.00481975,-0.00326428,-0.00214309
0.0126286,-0.00568166,0.0251116,0.0044412,0.0046078,-0.00224245
-0.0525261,-0.0644199,0.00387744,0.0121269,-0.000713378,-0.0151795
0.0473366,0.0187255,-0.052916,-0.00959972,0.0126694,0.0143018
0.0260658,0.0219577,-0.0466069,0.00357048,-0.00785334,0.000877321
0.0371424,0.0979034,0.0170491,-0.0122506,-0.00962324,0.0184155
0.0116067,0.0819114,0.024539,0.00890321,0.00534438,-0.027873
-0.00687198,-0.0719771,-0.0226162,0.020795,0.00334778,-0.0163889
0.0236534,-0.0934703,-0.0832644,0.000903189,0.0120837,-0.00265265
-0.00687396,0.0134646,-0.0306476,-0.00808994,-0.0185747,0.0118762
-0.0139816,-0.0131291,0.0304011,0.00827432,-0.00431919,-0.0192002
0.0442731,-0.0346352,-0.0258701,0.00101881,0.0217667,-0.0078699
0.000996533,0.0317354,0.0365762,0.00387773,-0.0268311,0.000249565
-0.0257002,-0.0729303,0.0360883,0.0168859,0.0072871,-0.0121868
-0.0341164,-0.0611435,0.0530744,0.000820369,-0.0146995,0.00634086
-0.0371932,-0.0386772,0.0710806,0.00108591,-0.00299624,0.00457871
0.00194547,-0.0740355,0.0265816,0.00648481,0.0067862,-0.00563407
-0.00325271,-0.0323405,0.044456,-0.0108538,-0.00166073,0.0109496
0.0337974,0.00494204,0.000546324,-0.000828207,0.0117217,0.000633657
0.0580223,-0.035744,-0.0429059,0.00722641,0.00819631,-0.00900346
0.0190929,0.0477376,0.0322658,0.000833303,-0.0143898,0.0122604
-0.00217384,-0.018453,0.0454386,0.0055816,0.00192682,-0.0190878
0.013555,-0.0537839,0.00619308,-0.000594825,0.00604519,-0.00261009
0.0312919,-0.00264193,-0.0613837,0.000788331,0.0108011,0.00594103
-0.00164423,0.00915942,-0.046626,0.00365487,-0.0174302,-0.00110155
-0.0124756,-0.00125251,0.102983,0.00475499,-0.0184318,0.00353158
-0.0352516,0.0680693,0.0297956,0.00469974,0.0228558,0.00860745
0.0217202,-0.0432144,-0.0547469,0.00497651,0.00293112,-0.0177833
-0.0149831,-0.0259267,0.0422345,0.0110033,-0.0196795,0.00718284
-0.01044,0.0510526,0.0823498,0.00138485,-0.00013411,0.00481898
0.0103817,-0.00678048,0.00587538,0.00276905,0.00416407,-0.00806767
0.000726913,-0.034561,-0.00252879,-0.00299604,-0.00216159,0.00197494
0.0366984,0.0400987,-0.0520248,0.00772904,0.0162994,-0.00991195
0.0164398,-0.0250391,-0.0484756,0.00955896,-0.0092881,-0.00402635
-0.0224681,-0.00136277,0.0356343,-0.00811519,-0.0112249,0.011027
-0.00677215,0.0252423,-0.0146961,-0.00187385,0.0103394,-0.0156789
-0.019345,-0.0462443,0.0273896,0.00235817,-0.0132186,-0.000215948
-0.0225052,-0.0120546,0.0303624,0.00495519,0.00710459,-0.00120634
0.0145107,-0.017503,-0.0154083,0.00548679,0.00467995,-0.00850093
-0.00235355,0.00606066,0.0132232,0.013431,-0.0110108,0.00307411
-0.0415885,0.0146892,0.0440067,0.00148223,-0.00913046,-0.00418848
0.00820324,-0.0377657,0.000725707,-0.000598013,0.0149131,-0.00334376
-0.0237135,0.0220819,0.00342511,-0.00804418,-0.0103914,0.00672179
0.00189265,-0.000355695,0.0111444,0.00446618,0.00805008,-0.0113677
0.0147541,-0.016364,0.0251863,0.00617872,-0.00468528,0.00276428
0.0218677,-0.029287,-0.0313305,-0.00193909,0.0150544,-0.0041877
0.0615432,-0.0132227,0.00931472,0.000156775,-0.0160693,-0.00911367
0.124502,0.0177307,0.02217,-0.000839606,0.00436716,0.00890368
-0.00573094,-0.0495293,-0.0120684,0.00421664,-0.000743493,0.00272226
-0.00441727,0.0381217,0.0215578,-0.00690314,-0.0142047,0.00973397
-0.018092,0.034981,0.0514408,3.2112e-05,-0.00330427,-0.00999719
0.00283838,-0.0228205,-0.00686957,0.00364625,0.0128715,-0.00214219
0.035881,-0.000412953,-0.00689162,-0.00966229,-0.00998089,0.00276661
0.0134995,0.0658205,-0.0138152,-0.00208335,0.00424008,-0.00457156
0.0112342,-0.0239322,-0.0282002,0.00468113,-0.00658123,-0.00420761
-0.00881649,0.0199295,0.000287883,0.00176346,-0.00656277,-0.00420994
0.00720645,0.0103167,0.00788972,0.00909044,0.0134006,-0.00404453
0.0174346,-0.0133131,-0.0613672,0.005861,0.00863016,0.00254911
0.0399844,-0.0624086,-0.0278434,0.0138901,-0.0282224,-0.0197446
-0.0357965,-0.079166,0.130111,-0.00187594,-0.026416,0.00899541
-0.00659805,0.041314,0.0129792,-0.000815421,0.0372735,0.0162573
0.0238613,0.0283458,-0.0594773,0.0106621,-0.00508869,-0.0144113
-0.00325293,-0.0195228,0.0433019,0.00941581,-0.0140256,0.000149548
0.00392457,0.0188389,-0.00713686,0.0003912,0.0147445,-0.0017134
-0.0142681,0.0017399,-0.018845,0.00147361,-0.0091608,0.00315559
0.00716703,-0.00464734,0.00264427,0.00594674,-0.00152123,-0.0150017
-0.0182751,-0.0377,0.0273391,0.00770745,-0.00310883,-0.00777352
-0.0153673,-0.0783712,-0.0172629,0.00349367,0.0125505,0.000905752
0.0134527,0.0230851,-0.0178117,-0.00357859,0.00320174,0.00489587
0.0158341,-0.00034016,0.0261551,0.00194614,-0.0108134,-0.00323755
-0.00221343,0.0050333,0.0367366,0.00281127,0.00119719,-0.00206149
0.0103476,0.00175379,-0.00059058,0.00183479,-0.00579259,-0.00557387
-0.0116999,0.0584726,0.0491758,0.00469449,0.00426999,0.00759745
0.0175571,-0.0495906,-0.0376258,0.0148192,0.0117269,-0.0195118
-0.156088,-0.0280887,-0.0341423,-0.00943914,-0.0187976,0.0180056
0.0218924,0.0326658,-0.0327992,0.00475129,-0.010373,-0.00549972
0.0298691,0.0210642,0.0549158,0.0120037,-0.0145372,-0.0102793
0.000798461,-0.0452215,0.010364,0.0060447,0.0201315,-0.0105179
-0.00591279,-0.0421049,-0.0431047,0.00424266,-0.00593887,0.00655675
-0.0977173,-0.0217927,-0.0734966,0.0239406,-0.0112972,-0.012552
0.0267761,-0.0112562,-0.103016,-0.000206172,0.0252954,-0.00764495
-0.0124482,-0.0453456,-0.0666142,-0.0147177,-0.00975159,0.00209415
-0.00452712,0.0359544,0.00340633,0.00704795,-0.0033834,0.00761414
0.02846,0.049802,-0.00510915,0.00614548,0.0111085,-0.00124395
-0.00748673,0.0370942,0.04292,0.00327229,-0.00749257,-0.00702107
0.0222484,0.0552002,0.0247486,-0.00260995,0.0178897,0.00196666
0.00586552,-0.0677295,-0.0311421,0.0202692,0.00360993,-0.0225329
-0.00777275,-0.0879498,0.0063341,-0.00572792,-0.0128494,0.0116103
-0.0387497,0.0402151,-0.0181176,0.000772655,-0.00212929,0.020884
0.00417021,0.0242501,0.0334312,0.00657722,-0.0135957,-0.0159047
0.0031884,0.0253429,0.0473113,0.00800887,0.00271094,0.000173569
0.0144746,-0.0132423,-0.021845,0.00124624,0.0129747,-0.00921595
0.00265567,0.00809944,-0.0401928,-0.00686952,0.00634515,0.00147855
-0.0248554,-0.01532,-0.0059544,0.00767338,-0.0183276,-0.00714093
-0.00973433,-0.0302253,0.0294595,-0.00564861,0.0009211,0.0100636
-0.0235543,0.0979593,0.0232339,-0.0126235,-0.00956565,0.00179595
-0.0226077,-0.0889823,0.0201745,0.00770743,0.000652462,-0.0224261
-0.021737,-0.0313661,-0.017591,-0.00542668,-0.000100076,0.0248056
0.00910415,-0.00897732,-0.0293745,0.00594497,-0.00128372,-0.0107583
-0.00222202,0.000759015,0.0356951,0.000788242,-0.00989504,0.00631082
0.0147151,0.0338231,0.0141748,0.0090709,0.0109537,-0.00356889
-0.0161197,0.0370692,0.0247235,0.00702029,-0.00935523,0.00117201
-0.0226513,-0.0227768,0.00692397,0.00415422,0.00162804,-0.0120708
0.00289746,-0.0324154,0.00387697,0.00702646,0.0034261,-0.0033018
-0.00884255,-0.0195957,-0.000523906,0.00294486,0.00254151,0.00063467
-0.00460062,0.00389174,-0.00600199,0.00512856,-0.00224224,0.000581563
-0.00343712,-0.00462456,0.0111523,-0.00402138,-0.0104762,-0.00610477
-0.0171628,0.0178513,0.0301875,-0.00112945,-0.000245512,-0.00314772
0.00706908,-0.0217648,-0.0122027,0.0071536,0.0128987,-0.00759268
0.00387347,-0.0196256,-0.0122295,0.00121605,-0.00352857,0.00444531
0.00934022,-0.0227936,0.0113182,0.00253916,-0.00884372,-0.00389028
-0.000215912,0.00605995,0.0143017,0.00179088,0.00515482,0.00542742
0.00817935,0.00388037,-0.0070227,0.00905341,0.0103442,-0.00767267
0.012394,-0.00147649,-0.0144521,0.00690976,-0.00624444,-0.00650728
0.0156339,-0.0046713,-0.00693821,0.00117645,-0.00494123,0.000242829
-0.0012444,0.0167533,0.019568,0.001899,-0.000991151,-0.00426924
0.0135167,-0.0153461,-0.00367148,0.00403088,0.00803156,-0.00325412
0.0122609,0.0134369,-0.0380545,0.000975847,0.00333847,0.00547993
-0.00784038,0.0455352,-0.0169689,0.00697556,0.00354712,0.000665009
-0.0609878,0.0861973,0.000733962,0.0102015,-0.00906676,-0.00458258
-0.0684563,-0.0611886,0.0123449,0.0192433,0.0138386,-0.0445402
-0.0347806,-0.0987182,-0.0545985,0.00219887,0.0145915,0.0163274
-0.126828,0.0585429,0.0401991,-0.00612253,-0.0360666,0.0350741
-0.378492,0.0458583,0.0072833,-0.00669372,-0.0124554,-0.0200002
0.0440628,-0.0336287,-0.0611359,0.00383739,-0.00290942,-0.00927198
0.0253096,0.0530226,0.00233599,-0.000236839,-0.0136082,0.0200301
-0.072402,0.201644,0.0416106,-0.0106916,-0.00515631,0.00324887
-0.0649173,0.0873667,0.0562688,0.0122115,0.000223935,-0.026738
-0.0399283,-0.0452597,-0.0293216,0.0148475,0.0212833,-0.0108204
-0.0169404,0.0186728,-0.110853,0.00112194,0.00822225,-0.00438249
0.0239477,-0.0549368,-0.0375663,0.0121745,-0.011066,-0.0129122
0.0661261,-0.0238135,0.0638929,-0.00373314,0.0135126,0.0269387
0.0014197,-0.154291,-0.0541027,0.0202764,0.0147738,-0.0257184
-0.0337938,-0.051749,-0.071993,0.00138721,-0.00664955,0.0154157
0.108947,0.107583,0.0856357,-0.00491309,-0.0211958,0.00317693
0.101399,0.00502922,0.079865,0.00663956,0.0238079,-0.0310147
-0.0264305,-0.0891633,-0.0845452,0.0100215,0.0188151,-0.0191528
-0.0124168,-0.00795485,-0.0647201,0.00481775,-0.0261666,0.00382745
-0.208549,-0.0420077,-0.0748479,-0.00368664,0.00832561,0.0170009
0.103516,0.0965642,-0.108769,0.00481707,0.0184473,0.00910962
0.073815,-0.0197899,-0.076074,0.0215888,-0.0102234,-0.0138332
0.0135762,0.0273936,0.00246079,0.00952819,0.000845999,-0.00817609
-0.0183256,0.00180249,0.0153303,0.00566733,-0.00970602,-0.00106573
-0.0589101,0.0178259,-0.00202075,-0.00317052,-0.00319543,0.0181274
-0.0544942,0.134285,0.0132658,0.00524727,-0.00925432,0.00843525
-0.0274927,0.00407003,0.0857968,0.0144994,-0.0059053,-0.0284098
-0.031907,-0.0707345,0.0670345,-0.00262567,0.0102691,0.00141114
0.0154504,0.0123651,-0.0391054,-0.0105342,0.0200127,0.0121239
0.0512125,0.0260859,-0.118124,0.00438531,0.00949225,-0.00702345
0.012747,-0.05936,-0.128398,0.0169781,-0.00473575,-0.0139714
0.040339,-0.0914548,-0.144113,0.00922428,0.00877935,-0.00115222
-0.00403838,-0.0186849,-0.0881235,-0.00177506,-0.018285,0.0155739
-0.0210287,0.0436037,0.0941115,0.00999299,-0.0295515,-0.00322658
-0.00807343,-0.0022828,0.126512,0.00660403,0.0102929,-0.00374788
-0.00616972,0.0414384,0.0845672,-0.000421822,0.00470319,0.010316
0.0169151,0.0562693,0.0236558,-0.00201347,0.00929384,-0.0135497
-0.0124086,-0.0560154,-0.0590638,0.0075255,0.00874174,-0.019453
0.00147458,-0.0699004,-0.0525126,0.00817826,-0.00187844,0.00190014
-0.0153129,-0.0334981,-0.0122106,0.000448644,-0.0142733,0.00634187
-0.0210813,0.0275667,0.0867384,0.00280017,-0.0133926,0.00293058
-0.051548,0.0127635,0.160444,0.00134672,-0.00923923,-0.0058192
-0.0360335,0.0350448,0.0802216,-0.000373513,0.0226155,0.00338995
0.00817461,0.096798,-0.0161721,0.0013268,0.0123989,-0.000992656
0.0276988,0.0701833,0.0439065,0.0088636,-0.00995028,-0.00850189
0.00573122,0.0564343,0.113363,0.0179264,-0.00201249,-0.00704211
0.0144488,0.0212392,0.148883,0.0126892,0.00878312,-0.00137907
-0.0338132,-0.0428989,0.102107,0.00533319,0.0170704,-0.0235825
-0.0309577,-0.0472719,0.0455161,-0.000394285,-0.0173944,0.00815535
0.000967347,-0.0141993,0.0358067,-0.000337914,-0.00384723,0.0057627
0.0279945,-0.0162425,0.101098,0.000635579,-0.0227834,-0.00514901
0.0218067,-0.00122389,0.134096,4.70877e-05,-0.00496773,0.000704467
-0.00600877,0.0308044,0.112417,0.00349618,0.00542277,0.010945
0.0373492,0.0509691,0.05582,0.00790942,0.0101482,-0.00444818
-0.0127546,0.0285707,0.0536412,0.00705118,0.00611871,-0.00934011
-0.000199476,-0.0120915,0.0186924,0.00735633,0.00887017,-0.0121726
0.00391676,-0.0100015,-0.00587935,0.00348033,-0.0017873,0.00100684
-0.0120091,0.00177519,0.002533,0.00379533,-0.00310658,-0.00110126
0.00288749,-0.00144604,-0.000595964,0.00309053,0.00209594,-0.000327706
-0.0041936,-0.000262174,0.0624081,0.00617304,-0.00605619,-0.00609386
-0.0704335,-0.0156609,0.390272,0.00693053,-0.0055449,-0.0143145
-0.434014,-0.300001,0.731591,0.0287968,-0.0485023,-0.0438454
-0.406642,-0.299051,0.676129,0.002709,0.0445503,0.00907457
-0.180853,-0.106247,0.464171,-0.00418632,0.0250949,0.0475073
-0.0969292,0.0171978,0.232899,0.0193639,0.0204815,0.0164897
-0.0839891,-0.0172559,0.0835882,0.0151315,0.0377192,-0.0179133
0.00152535,0.0187607,-0.0520169,-0.00216728,0.0216521,0.0012781
0.0124697,-0.0548566,0.00299006,0.013141,-0.0173155,-0.0178766
-0.00478953,-0.0677229,-0.0311791,0.0133047,0.00157908,0.00284517
0.0195316,0.00803624,-0.0689772,0.00547686,-0.00706893,0.00183874
0.120364,0.0398868,-0.137187,-0.00386885,0.0221007,0.0218081
0.458797,0.135637,-0.212398,0.00826195,0.0195976,-0.00208372
0.110461,-0.0154248,-0.00651238,0.00141856,-0.0399968,-0.0195496
-0.0948349,-0.0920672,0.058392,0.00175503,-0.00542292,-0.000567198
-0.00452762,-0.0548292,0.0114745,0.00235027,0.000833035,-0.00109839
-0.0546281,-0.058003,0.0081046,0.0126022,-0.00429606,0.00271785
-0.0249058,-0.0270841,-0.0133556,-0.000194699,-0.00390726,-0.00503504
-0.00739604,0.0264394,0.0590177,0.00604711,-0.0177233,0.01776
-0.0868229,0.00528057,0.142197,0.00642592,-0.00232434,0.00226164
-0.0556758,-0.00886605,0.00671126,0.00679429,0.0271934,-0.00320137
0.143588,-0.0883586,-0.161911,0.0119528,0.0352797,-0.0158699
0.0794083,-0.0990639,-0.202682,0.0116374,-0.0181528,0.00724244
-0.0183616,-0.0156082,-0.167262,-0.00120559,0.0128073,0.0309318
-0.0837688,0.13309,-0.0712413,-0.010327,-0.023802,0.0198231
-0.0106992,0.184481,0.0269954,0.00338656,-0.00754359,-0.00278294
-0.116065,0.0574986,0.0584094,0.00913164,-0.0205156,-0.0212377
-0.0757055,-0.0515104,0.046447,0.0122623,-0.00652057,-0.00766331
-0.0843007,-0.0654086,0.0358191,0.00597823,-0.0185198,0.000560403
-0.0316131,-0.0293076,-0.065719,0.00400786,0.00551224,0.00248277
-0.0400192,0.0155911,-0.0500154,0.000282019,-0.00402364,0.0157598
-0.0691912,0.0154953,-0.117436,0.00767533,0.0263704,0.00804353
-0.0892175,0.217879,-0.455386,-0.00124338,0.067741,0.0348523
0.220869,0.353292,-0.46365,-0.00509143,-0.0197421,0.00744343
0.0598237,0.0976627,-0.110007,0.0286908,-0.0645452,-0.0532771
-0.0351909,-0.0793021,0.0531885,0.00249526,-0.00513995,0.00265872
0.0592446,-0.0549247,-0.0149953,-0.000412941,-0.00729457,-0.00955439
-0.777313,-0.0682157,-0.036205,-0.00108217,-0.0426337,0.00745499
-1.17707,0.00497076,0.103925,0.00930747,-0.0131117,0.00793397
0.0812715,-0.0023975,0.100138,0.0129036,0.0458587,-0.00369024
0.401015,-0.0605986,-0.0574852,0.0097919,0.0171084,0.00117314
0.0294633,-0.200452,-0.171225,0.0131658,0.0584568,0.0055095
0.0457666,-0.0188019,-0.133881,-0.0315396,0.0176798,-0.0223624
-0.139918,-0.0632918,0.000337665,-0.00113195,0.00523362,-0.00644016
-0.110898,-0.0215874,0.0386416,-0.00743455,0.00692075,0.00911307
-0.0472698,-0.00249847,-0.0135996,0.00940806,0.00656405,0.000962853
0.00690839,0.0016842,-0.0412016,-0.00782269,-0.0019955,0.00704885
0.0313698,0.0251494,-0.0508784,0.00335926,0.00599283,-0.00592577
0.023886,-0.0122336,-0.0517325,0.00840032,3.73721e-05,-0.00903499
0.0811258,0.0421066,-0.106363,-0.00609657,0.0138889,0.0107268
0.116997,0.133827,-0.174135,-0.00095287,0.00900853,0.00395846
0.202089,0.0877927,-0.194886,0.0165104,-0.0168235,-0.0305731
-0.00171551,-0.0186309,-0.0560611,0.00760263,-0.0355831,-0.0149915
0.00190872,-0.0195762,0.0155439,0.000108957,0.00418872,0.000406384
0.0378316,0.0732266,-0.0436873,-0.00422087,0.0164625,0.0138063
0.126503,0.23419,-0.197186,0.00213331,0.0378079,0.0386278
0.246222,0.242444,-0.312184,0.00159571,-0.00915045,-0.020552
0.130747,0.0825197,-0.186571,0.0150472,-0.0378854,-0.0294237
0.0198162,0.0401595,-0.0243076,0.00216755,-0.0244268,-0.00163364
0.00617999,-0.0142371,0.0165948,0.00182165,0.00222516,-0.00983697
0.0200005,0.038077,0.00669183,-6.14822e-05,0.00422955,0.000428617
-0.00790695,-0.0239068,-0.021861,0.0108762,0.000618517,-0.00860614
-0.000408151,-0.0206973,-0.0154416,0.00670987,-0.00465655,0.00425285
0.0135248,0.0391258,-0.00722904,-0.00371706,-0.00431508,0.00524187
0.0305977,0.0241677,-0.00172608,0.00653079,-0.00315362,-0.00534248
0.00834625,-0.00782045,0.0219041,0.00915971,-0.00506526,0.000958622
0.683799,0.120122,0.175322,-0.00303975,0.0383583,-0.0996062
1.12351,-0.117726,-0.0383843,0.0156591,0.0226896,0.0166841
0.293451,0.0495068,-0.0586035,0.00559057,0.0368699,-0.0334621
0.24558,-0.0647152,-0.0356038,0.00175396,-0.00576603,-0.0211035
-0.0543516,-0.0507568,-0.124431,-0.0275753,-0.057281,0.0177519
0.486925,-0.20314,-0.289161,0.00137094,-0.0475899,0.00343835
0.39576,-0.0424156,-0.0469405,0.0193361,-0.0384294,0.0336816
0.334673,0.0707379,-0.116281,-0.00386,0.0359685,0.00566816
0.236973,0.0802092,-0.240651,0.00139451,0.0183918,-0.00382781
0.140774,0.0406755,-0.287765,-0.0023599,-0.0098727,0.011163
0.148051,0.0224608,-0.316469,0.00161397,0.000700362,0.00139463
0.151493,0.00223609,-0.273585,0.0122851,-0.00168023,-0.010918
0.103174,0.0761705,-0.164195,0.00226448,-0.025229,-0.00213194
0.0100087,0.026218,-0.0595115,0.0162489,-0.0193751,-0.0127323
0.0220708,-0.0324328,0.00288289,0.00682771,-0.00179502,0.00421131
0.013392,0.0294755,-0.0285376,0.00831704,0.0050571,-0.00234866
-0.0765621,-0.0773927,-0.0944245,-0.00465666,-0.141856,0.102629
-0.00469582,-0.0207017,-0.0197311,0.0220763,0.00111951,-0.0120755
-0.0195563,-0.0345583,-0.00901269,0.00651136,-0.00310792,-0.00284523
-0.00788122,-0.0239002,-0.0175854,0.00253224,-0.00185477,0.000284433
-0.0142344,0.0177694,-0.0146733,0.00458682,-0.00997038,-0.000438452
-0.0439078,-0.0174069,0.0153614,0.00955257,-0.00618427,-0.0057832
-0.00358827,-0.051663,-0.00991083,0.00932935,0.00662227,-0.0130484
0.0108243,-0.128721,-0.0873535,0.00662386,0.0198312,-0.0131643
0.0433465,-0.0605392,-0.178492,-0.00109202,0.00268159,-0.00192052
0.0204297,-0.00803572,-0.0955773,-0.00165665,-0.0353393,0.0159912
0.0146686,-0.0345469,0.012485,0.0101725,-0.0138039,-0.0106353
0.0114443,-0.0260083,0.00707552,0.00388762,-0.000993572,0.00188452
0.00609113,-0.000378998,0.000478888,0.00102979,-0.000851095,0.000455081
0.00816879,0.00814889,-0.00918618,0.00442559,-0.00430581,-0.0014028
0.00818907,-0.00252577,-0.00484272,0.0015721,-0.00377929,-0.00344694
0.0016323,-0.022861,-0.0303789,0.00245881,0.00878891,-0.00864989
0.0807276,-0.0519981,-0.164516,0.00314319,0.034355,-0.00631839
0.101248,0.0556279,-0.306174,-0.00302771,0.0101427,0.00794011
0.0771453,0.0333352,-0.23667,0.0129662,-0.0158973,-0.01318
0.0109676,-0.00799062,-0.0742454,0.00884593,-0.0326647,0.00169528
-0.00664353,0.000713431,0.00897228,0.00878891,-0.00662223,-0.00325394
0.00501806,-0.00251601,-0.000580669,0.00265002,0.00339165,0.00154495
0.00805446,0.00918255,-0.0284233,0.00564268,-0.000516951,-0.000326455
-0.00578774,0.00278692,-0.0262955,0.00494421,-0.00595762,-0.00111616
0.0869548,0.0860376,-0.0264903,-0.00828823,0.0125379,0.00891823
-0.0196391,0.00386546,-0.0263543,0.0061693,0.00248596,-0.00319415
-0.0110468,0.0124237,-0.0156941,0.00141707,-0.00193124,-0.00563949
-0.0419185,0.00604761,-0.0104273,0.00262788,-0.00824669,-0.000146091
-0.0301961,0.00924376,-0.0104049,0.00787094,0.00591746,-0.000311196
-0.0173559,0.0145896,-0.00184295,0.00719199,-6.4373e-05,-0.00325888
-0.000330894,0.031659,-0.00723288,0.00231831,-0.00281234,0.00223881
-0.00342297,-0.0153026,0.0144304,-0.0131775,0.00471611,-0.00169462
-0.00459564,0.000688042,-0.00491066,0.00731695,-0.00174534,-0.00180453
-0.0396898,-0.00353862,0.00673989,0.00292584,-0.00634292,-0.00335449
0.0114402,0.00389484,0.00367769,0.0013295,0.00310215,-0.00143522
0.00614182,0.0113837,0.00788299,0.00341778,-0.00396688,-0.00311923
-0.00660427,0.00286185,0.0153674,0.00582832,-0.00758123,0.00101471
-0.0215636,-0.00461644,0.00895116,0.0031811,-0.00601715,-0.00343722
-0.00451336,-0.00142549,0.00899612,0.00346524,-0.00570573,-0.000650167
0.00926029,-0.00466305,-0.00375223,0.00177222,-0.000227824,-0.00179309
0.0124348,0.00280588,-0.0080656,0.00532189,-0.000708088,-0.00761753
0.00920582,0.027363,-0.0157146,-0.00278792,-0.000509977,0.00141144
0.00497526,0.000673661,-0.00807667,0.00177447,0.00284487,-0.000264883
0.0188431,0.00707639,-0.00592984,0.00542285,-0.00110905,-0.00885862
-0.00457571,0.00176067,-0.00170974,0.00302754,-0.00501567,-0.00213414
0.00183396,-0.00357936,0.00155395,0.00482337,-0.00565284,0.0015772
-0.0120419,-0.0131884,-0.00164076,0.00379284,-0.00175026,-0.00246871
-0.0971831,-0.0664972,0.0197556,0.00472039,-0.00776088,-0.00356156
0.0114103,0.00815839,-0.0016925,0.00177966,0.00514276,-0.000810444
0.00813389,0.00172907,-0.0144841,0.00336787,0.000756025,-0.00373709
-0.00668863,-0.000368745,0.00150198,0.00709021,-0.00521652,-0.000912964
-0.0205331,-0.0110364,0.00365583,-0.000513613,-0.00284418,-0.00185454
0.00494701,0.00814183,-0.0134677,0.0028498,0.000206068,-0.00367892
-0.00352822,0.00389027,-0.00492411,0.00223915,-0.00649375,-0.00159925
-0.0183653,-0.00141466,0.00894323,0.00616267,-0.00584882,0.000405848
0.00287991,-0.00465466,-0.00163899,0.00703603,-0.00151677,-0.00336516
-0.00552839,0.0487884,0.0129394,0.00288023,-0.00936387,0.00253487
0.0347841,0.0508413,-0.0168376,0.00469357,0.00430283,-0.00366551
0.0858944,0.031568,-0.020795,0.00120746,0.011814,-0.0065397
0.0125561,-0.0110454,0.013398,-0.00298713,0.0147211,-0.00699002
-0.00132307,-0.00143019,0.00794059,0.0031147,0.00350907,-0.00233293
0.00924761,-0.00466731,-0.00588801,0.00551251,0.00176018,-0.000373602
0.00716434,0.00175726,0.00154006,0.00359082,-0.00437012,0.00143385
0.00184383,0.00283011,0.00258419,0.00627664,-0.00125989,-0.00338817
0.00501221,-0.0025208,-0.00164285,0.00625685,0.000643224,-0.00435376
0.00606472,-0.00252404,-0.00377854,0.00283498,0.00184223,-0.00159609
-0.0109527,-0.00463912,0.00151541,0.00577298,-0.00363708,-0.00166589
-0.00668479,-0.00570843,0.0026063,0.0068433,-0.000971437,-0.00455624
-0.00245453,0.00709503,-0.00387053,0.00390428,-0.00093019,-0.000670195
-0.00558776,-0.0067685,0.00796037,0.00586058,-0.00525688,-0.000770807
-0.043965,-0.00460863,0.00459667,0.000276208,-0.00630927,-0.00049758
-0.0152645,-0.0014459,-0.00706978,0.00441712,-0.00314036,-0.00139004
-0.0216203,-0.016383,0.000482978,0.00477326,-0.0086793,-0.00428009
-0.0983923,0.119299,-0.0209841,-0.0346952,-0.0188551,0.0418534
-0.160502,-0.150202,-0.226748,0.0205465,0.0407309,-0.0619409
0.0559875,0.345705,-0.59563,-0.051773,0.0250967,0.0518859
0.338382,0.393252,-0.772244,0.0207074,-0.01078,0.000690758
0.404806,0.356372,-1.06451,-0.0266584,0.0145028,-0.03701
0.403499,0.162229,-0.909399,0.0383746,-0.0299734,-0.0333569
0.309768,0.116698,-0.72141,-0.00997438,-0.083652,0.0235027
-0.128594,-0.0191849,-0.42621,-0.0135889,-0.0338494,0.0246895
-0.357963,-0.087895,-0.11143,0.00893598,0.0297097,-0.0200574
-0.389058,-0.0291859,-0.149324,-0.00473312,-0.0244091,0.00570005
0.3256,-0.0220261,-0.0216848,0.00699318,0.0668279,-0.0148525
-0.0619714,0.0445656,0.0181013,0.00187419,-0.0239362,0.0047335
0.0223969,0.0178568,0.0527818,0.00710841,-0.0281595,0.00839233
-0.0759932,-0.00139908,-0.00622779,0.00316596,-0.0127403,0.000643611
-0.064307,-0.0195748,-0.0103397,0.00862769,-0.0194657,0.00518531
-0.00994397,-0.0035897,-0.00810109,0.00420817,-0.00142688,-0.00440228
-0.00564204,-0.000376334,-0.00169684,0.00140096,0.00169957,-0.00251842
-0.0215947,-0.0035593,0.00360565,0.00570522,-0.0107191,-0.000338614
0.000741103,0.00495567,-0.00384346,0.00352256,0.00229219,-0.00597233
-0.0226825,0.00284245,-0.000712115,0.00425859,-0.00127959,0.000396252
-0.0418674,-0.00782497,-0.000715063,0.00512181,-0.00667626,0.00185347
0.0231429,0.00494577,0.000515507,0.00414245,0.00053975,-0.00379151
0.0028871,-0.00358602,-0.00057441,0.0041161,-0.0015353,-0.000178933
-0.00135968,0.00176245,0.00151067,0.00601244,-0.00336057,-0.00119263
0.0156835,0.00388419,0.000492281,0.00406595,-0.00120065,-0.00126016
0.0146176,0.00281573,0.000497492,0.00469164,0.000403702,-0.00179386
0.0114098,0.00601903,-0.00167228,0.00525728,0.00100937,-0.00102055
0.0103671,0.000686622,0.00263152,0.00403797,-0.000473768,-0.00505865
-0.00564944,-0.00251494,-0.00275069,0.00495637,0.00213894,-0.00496507
0.000755451,-0.00465231,-0.000576142,0.00502004,-0.00246701,-0.00309223
0.00291314,-0.00251006,0.00369184,0.00512123,-0.00238323,-0.000209391
-0.00883914,-0.00144231,-0.00170152,0.00503669,-0.00311697,-0.00126171
0.00182416,0.00175615,-0.000613883,0.00504191,0.00221011,-0.00401103
-0.00243256,-0.000375581,0.000453303,0.00609228,0.00149149,-0.00280231
-0.00668832,-0.000370387,0.00147819,0.00505041,-0.00230107,-0.00348639
0.00929578,0.00175362,0.00151146,0.00319414,-0.00118268,-0.00159413
-0.326289,-0.10051,0.0190826,0.0167939,0.0135663,-0.0385111
-0.0325087,-0.0159992,-0.394925,-0.0136205,-0.0617601,-0.126142
0.679168,0.46419,-0.986227,0.000753984,-0.0566105,-0.000325084
1.38066,0.353006,-0.733929,-0.0101823,0.0768975,0.0664675
0.650403,-0.104875,-0.221908,-0.0295373,0.0403985,0.0801389
0.140488,-0.0922941,0.0325303,-0.0148453,0.0338346,0.0876532
-0.0967793,-0.209187,0.278141,0.0340273,0.0399256,0.00208509
-0.375814,-0.273021,0.30529,0.0342073,-0.0185782,-0.0412499
-0.265769,-0.241287,0.174077,-0.00955555,-0.0226691,-0.0114062
-0.0753279,-0.46153,0.1463,0.0237864,0.0391594,-0.0834374
-0.0870848,-0.508526,0.144427,-0.0137329,0.00735795,0.0343928
0.275431,-0.183601,-0.200364,0.0115954,-0.0609537,-0.0765421
-0.436914,0.0245894,0.0392254,-0.00319894,-0.0114669,0.00881517
-0.175824,0.0308126,0.0455039,-0.0490707,0.0457327,0.0106711
-0.0929515,0.0253399,0.00631803,0.00762303,-0.00340533,0.0079605
-0.00453116,0.000703665,0.00573944,0.0120145,-0.0145027,0.00416517
-0.200593,0.0190062,0.00274978,0.00173974,-0.0199184,0.00502551
-0.134687,-0.0152665,-0.0202871,0.0147946,0.00864413,-0.0172133
-0.0506735,-0.00896822,-0.0477945,0.00197561,0.00357479,-0.0103924
-0.0739334,-0.00355806,-0.0179989,0.00108083,0.0131578,-0.0127874
-0.0228844,-0.00469248,-0.0338273,0.00717215,-0.00316238,-0.00427103
-0.0237517,0.00818204,-0.00185949,0.000257801,0.0162378,-0.00752246
-0.0480502,0.0168062,0.0321827,0.000164341,-0.0011453,-0.00636226
0.308526,-0.00920502,-0.0272137,-0.000411462,-0.000205368,-0.00861216
0.0104549,-0.0281241,0.0198714,0.00377947,-0.0180061,-0.0068565
0.0105025,-0.00995444,0.0261662,0.0185651,0.00465509,0.00851595
-0.0339264,-0.0240217,-0.0967825,-0.00456363,-0.0216985,-0.00133866
-0.0510266,-0.025092,-0.105387,0.00715536,0.0148499,-0.00290757
0.00539293,-0.0176747,-0.114838,0.0013698,0.00997341,-0.0105055
-0.0776345,-0.0282674,-0.100124,0.00230825,-0.0119468,-2.94447e-05
-0.0894191,-0.0410941,-0.1097,0.00449804,-0.00247523,-0.000923991
-0.0834567,-0.0721986,-0.178923,0.00330941,0.00115535,-0.00249904
0.00556671,-0.0884255,-0.257552,0.00412459,-0.0138416,0.00312734
-0.00293943,-0.0905499,-0.254365,0.00241809,-0.0073674,-0.00291103
-0.0185867,-0.0840325,-0.198905,0.00468671,0.0010983,-0.00671291
0.0467867,-0.0604746,-0.137911,0.00313744,0.0486736,-0.0230398
-0.00714003,-0.0346791,-0.0709697,-0.00709444,0.0277182,-0.00180346
-0.00577825,-0.00468906,-0.0241461,0.0115279,-0.00086689,-0.00781405
0.0296452,0.00604113,0.0186548,-0.000551701,0.00492105,-0.00719482
0.0669025,0.0102752,0.0123553,0.00225422,0.00494379,-0.00389707
0.0915373,0.022041,0.0326746,0.00479553,0.00356102,0.00673652
0.0915616,0.0199133,0.0369597,7.80523e-05,0.00189453,-0.00475466
0.11511,0.0295399,0.0540793,0.0044542,0.00253215,-0.00195062
0.0661214,0.0295837,0.0581702,0.000969756,0.00260612,0.00044018
0.0202829,0.0264072,0.0548155,0.0044479,-0.00748405,0.00138104
0.00943675,0.0156803,0.023857,0.00219442,-0.0063383,-0.0069046
-0.0227102,-0.00143778,-0.00499922,0.00314818,-0.00533244,0.000325322
-0.041797,0.00501146,0.00984663,0.00967739,0.0146018,0.00268209
-0.0341258,0.00827255,0.0451118,-0.00233617,0.0205131,-0.0145043
0.0116809,0.0242551,0.0419752,-0.000173099,-0.0107485,-0.00112396
0.040623,0.0370993,0.0697821,0.0060181,-0.001331,-0.00128233
0.0191912,0.0253327,0.0505437,-0.00167635,-0.000887722,-0.00424951
0.0287262,0.0306493,0.0409298,0.00343832,0.00314635,-0.00419742
0.0319461,0.0263824,0.0452416,0.00558309,0.000504017,-0.00171357
0.0180549,0.0242447,0.0387937,0.00170531,-0.00181189,-0.0038197
0.0255343,0.0274497,0.0420056,0.00699988,0.00151283,0.00290513
0.0244672,0.024246,0.0420221,0.000461936,0.00546604,-0.00772476
0.0276245,0.0220953,0.0356387,0.00692439,-0.00556469,-0.000174642
0.0114742,0.00710648,0.0089631,0.00265015,-0.00396249,-0.00188279
-0.0719984,-0.0506102,-0.0465355,-0.0020263,0.011007,-0.00469446
-0.0124669,-0.0592414,-0.0686902,0.00408901,-0.00727335,-0.0113744
0.0570146,-0.0111659,-0.0356219,-0.00155828,0.0105645,-0.00876182
0.0135458,0.00281418,-0.000614879,-0.000223644,0.00760946,0.00140071
0.0541833,0.0167123,0.0229509,-0.00321202,0.013711,-0.00551999
0.106249,0.00701784,-0.00029589,0.000386052,0.018033,-0.0133061
0.0827412,0.00274462,-0.011042,-0.00171272,0.000258267,0.00306118
-0.019398,-0.000338118,0.0142375,0.000542119,-0.000372589,-0.00339365
-0.0481551,-0.00138097,0.0162733,0.0119917,-0.00978214,0.00117302
-0.00762536,0.0135517,0.0216727,-0.0060668,0.0151027,-0.00553924
-0.0536457,0.00498328,-0.0115672,0.000316329,-0.0202468,0.00333136
-0.0343309,-0.0184883,0.0132312,0.0210305,-0.0393797,0.0119157
-0.219738,-0.107754,0.197958,0.0293476,-0.0603101,-0.0628737
-0.165955,-0.527386,0.320546,0.0806642,0.0218309,-0.120471
-0.152253,-0.89667,0.506765,0.128048,0.00758108,-0.062108
-0.210418,-0.869174,0.933749,-0.0149766,-0.114932,0.0638505
0.265358,-0.282705,1.1529,-0.0209668,-0.00350907,0.160785
0.426812,0.31802,0.83655,0.0165663,0.0698486,0.0546188
-0.306774,0.189947,0.583548,-0.0123043,0.0347308,-0.0444916
-0.0264885,0.035955,0.606964,-0.0326805,0.0699368,-0.006845
-0.0610162,-0.123283,0.549104,-0.0417701,0.0301639,-0.0219992
-0.20708,-0.343526,0.375827,-0.0119758,0.0106162,0.0345265
-0.0483762,0.170509,-0.0361274,0.0165216,0.0157592,0.0683384
0.0513778,0.416275,0.0524044,0.0267501,-0.00131372,-0.0111054
0.00408762,0.263774,0.176086,0.0194927,-0.0429298,-0.0295075
-0.0221005,0.153917,0.261109,-0.00521582,-0.00409894,-0.0142005
0.156229,0.149312,0.148551,0.00236553,-0.0103356,-0.00481445
0.0384981,-0.232042,0.0950229,0.0200443,0.0207866,-0.0892153
-0.332436,-0.750735,-0.415858,-0.0453504,0.0232028,-0.00216675
-0.647579,-0.557421,-0.570011,-0.0633323,0.0308883,0.0845753
-0.0556042,-0.257257,-0.315451,0.073047,-0.0554663,0.00665849
0.0439555,-0.00696397,-0.0816406,0.132891,-0.0599021,-0.0186685
0.14953,0.112915,0.10068,-0.0200879,-0.0564712,-0.0191386
0.194284,-0.0494598,0.115791,-0.0192177,0.002655,-0.0154894
0.175036,-0.162678,0.114316,0.00291687,0.0569331,-0.0125209
-0.114894,-0.0151019,0.082357,-0.000543237,-0.0158877,0.0433394
0.0237066,0.363215,0.24069,-0.00826383,-0.0130838,0.0601918
0.218279,0.581138,0.329756,0.0176791,0.0380694,0.0319231
0.457157,0.192696,0.0425503,-0.0129824,-0.0614088,-0.0968463
-0.596307,-0.0705303,-0.0579838,0.021542,0.0135258,0.0151339
-0.0610221,0.0965525,-0.184209,-0.0427227,-0.0140872,0.023807
-0.0410241,-0.142776,-0.20395,-0.00203282,0.0110189,-0.0301901
-0.119898,-0.153404,-0.207382,0.043278,0.015666,-0.00699967
-0.198066,-0.0303215,-0.104834,0.0196473,-0.0192457,-0.0135227
-0.229815,-0.0726446,0.113286,0.00296536,-0.00868141,-0.0122263
-0.145179,-0.152676,0.197459,0.00780728,-0.0287506,-0.030556
-0.0545687,-0.248101,0.0349489,0.00046429,-0.0262299,0.0175464
-0.00350636,0.00527467,0.176665,0.00853556,0.037721,0.0343325
0.0784118,0.0948905,0.147544,-0.0114492,0.0484558,-0.00121015
-0.235227,0.0138457,0.0913361,0.00746015,0.0195884,-0.0090431
-0.0309484,-0.00455199,0.0430701,0.00540262,0.00476694,-0.0132023
-0.00240169,-0.0281354,0.00807131,0.00689122,0.0101503,-0.00425267
0.0387828,0.00910625,-0.0571908,-0.0069305,0.0137914,0.0170597
0.0944635,0.0700232,-0.0167775,0.0104519,0.0277261,0.00143355
0.0317508,0.00603199,0.0143892,0.0056279,-0.0157411,-0.0233248
0.179424,0.0125139,0.119607,0.00630456,0.00547794,0.0185273
0.126823,0.0647736,0.049622,0.00634491,0.0118816,-0.00233722
0.156575,-0.0121725,0.0427547,0.0156384,0.0304313,-0.0134272
0.0723166,0.0295204,0.0250736,0.0114045,0.0153186,0.00776124
0.0537992,0.16933,-0.0549688,-0.00402528,0.0148677,0.0369376
-0.0524814,0.360357,-0.205119,-0.0500211,-0.0101703,0.0654697
0.00258193,0.332757,-0.0818623,0.0387677,0.0113929,-0.0577011
-0.106421,-0.0396876,0.0761367,0.021016,-0.0542332,-0.0522174
0.114388,0.0510002,0.1095,0.000372261,-0.00396628,0.018581
0.00398267,0.194321,0.164783,0.0310448,0.00644679,0.00300801
-0.295779,-0.0957503,0.309781,0.0726722,-0.0145982,0.0748966
-0.114927,0.0726457,0.781622,0.00107005,0.0360169,0.146059
0.458817,0.161495,1.748,0.0797118,-0.200888,-0.0625266
-0.399792,0.276304,1.05703,-0.00994784,0.0455235,-0.0998435
-0.613923,0.273715,0.706864,0.0381359,0.0733916,-0.0104105
-0.149808,0.227442,0.102022,-0.0513078,0.0138357,-0.0169324
-0.120911,0.252021,0.121205,0.0357535,-0.0308462,0.000563264
-0.0183654,0.151312,-0.00490438,0.00387342,-0.000194088,-0.000371337
0.0738623,0.0218718,-0.0720998,-0.00171375,0.0392388,-0.0089426
-0.0178246,0.0475593,-0.0832958,0.0137121,0.00461121,-0.000583112
-0.0189417,0.0208432,-0.0895358,0.00735503,0.00791912,-0.019882
-0.039928,0.0177501,-0.0351042,0.00415233,-0.00271307,0.00113302
-0.0279974,-0.0355986,0.00481719,0.0129592,-0.0070554,-0.0146517
-0.0407209,-0.0248909,0.0143175,0.0032919,0.00565806,-0.00120288
-0.0685419,-0.00354297,-0.0072953,0.0116419,0.000211582,-0.00202018
-0.0940512,0.0210591,0.000998198,0.00251193,-0.00462696,0.00547397
-0.042747,0.0317472,0.0267644,0.000714213,-0.00376771,-0.0028736
-0.0629341,0.0456642,0.0351453,-0.00715569,-0.00210367,-0.000172794
-0.0183995,-0.0195837,0.00475099,0.0107683,0.00329256,-0.0176622
-0.0111991,-0.0762707,-0.0333184,0.0108822,0.00184327,-0.000811458
0.00702388,-0.036734,-0.0185506,0.00368643,-0.000854105,-0.00112027
-0.00449289,-0.0377341,0.0156039,0.0105022,-0.00522293,-0.00481856
-0.0226458,-0.0259836,0.00798099,0.00750273,0.00293031,-0.000945151
-0.0428308,-0.0206102,0.0174856,0.000936627,-0.00960249,-0.000142276
-0.135995,-0.107944,0.125618,0.0155028,-0.0311556,-0.013841
-0.0477513,-0.0632101,0.0893317,0.000398323,0.022443,0.0061245
-0.0760058,0.0114126,-0.00955494,-0.00271246,0.0115455,0.0139843
0.00290421,0.0818617,-0.00544239,-0.000485957,-0.00780144,0.00355828
0.0454982,-0.0110972,-0.00147557,0.0153666,0.00440101,-0.0371187
0.037681,-0.166062,-0.0475122,0.0174189,0.0144837,-0.0144894
-0.0261242,-0.0271308,-0.0390376,-0.0135854,-0.00119066,0.0355748
0.00667124,0.162129,0.0827323,-0.00441805,-0.0231717,0.0087803
0.0258145,0.0638447,0.085577,0.00796565,0.0120315,-0.0216869
-0.0456166,0.0724309,0.0777744,0.00324966,-0.00368375,0.00378287
-0.0860263,0.11841,0.086941,-0.00135198,-0.00590524,0.000911772
-0.0628484,0.0894793,0.045545,0.00122951,0.00900966,-0.00765324
-0.00178572,-0.0325394,-0.0666894,0.011721,0.0114991,-0.012812
0.00972052,-0.10417,-0.0960979,0.010641,0.00100991,-0.00913334
0.0112733,0.00170808,-0.0241253,-0.0103075,-0.0119347,0.0174606
0.0307703,0.0487798,0.0247914,7.17193e-05,-0.0106626,-0.0111213
-0.0109458,-0.0163858,0.00368801,0.00350595,0.0134552,0.00949472
-0.0170757,0.101179,0.0370942,-0.00183678,-0.0173962,0.00142014
0.00521998,-0.00886867,0.0336174,0.0215626,0.00885238,-0.0309979
0.0289574,-0.116983,-0.0852605,0.0103536,0.019966,0.00230825
0.0100879,-0.0207545,-0.0421485,-0.000734016,-0.0176659,0.00829637
-0.00738579,0.0456634,0.0588597,0.000671342,-0.0119655,0.00767422
-0.0393256,0.0339465,0.0641584,0.00480887,0.000852287,-0.0021196
0.0326468,0.0636565,-0.0191043,-0.00204194,0.0137177,-0.00900108
-0.0197698,-0.0538485,-0.0431132,0.0174599,0.000178263,-0.00963062
-0.00359352,0.0134824,-0.0167781,0.00284511,-0.0111015,0.00310552
0.00687308,-0.0442539,-0.0430774,0.0112587,0.00575541,-0.0124466
0.152638,0.00256788,-0.0823671,0.00434309,0.0158118,0.0230265
0.308093,0.0077582,-0.10105,0.0194793,0.0149225,-0.000682175
0.142727,0.0593981,0.0368952,0.00445071,-0.00174886,-0.00222766
0.503818,-0.137427,0.0352477,0.0267225,0.0289167,-0.0248603
0.37857,-0.145291,-0.23976,-0.021768,0.0278793,0.0308859
-0.0448033,-0.0454392,-0.131943,0.00375779,-0.0149371,0.0478974
0.0857036,0.00405419,0.127858,0.0177792,-0.0180479,-0.071605
-0.214951,0.0255892,0.0956074,-0.0108401,-0.0640029,0.0553497
-0.00418358,-0.00377888,-0.113896,-0.00536837,0.06917,0.000509024
0.0505863,-0.039251,-0.217102,-0.0085569,0.0336592,0.0591531
0.183776,0.0570836,-0.0473441,-0.0010111,0.00208811,0.0056411
-0.043426,-0.012996,0.0954308,0.0250147,-0.0390257,-0.0121084
-0.00800389,0.0497566,-0.0448114,-3.88622e-05,0.0460897,0.00273567
-0.506106,-0.294237,-0.277366,0.0115645,-0.0335356,-0.0489681
0.110379,-0.0873213,-0.191993,-0.0164472,0.0136809,0.0184426
0.0188555,-0.0452545,0.00078058,0.0226748,-0.0453017,0.00645852
0.0395324,0.0264152,0.0666362,-0.00977156,-0.00770741,0.0140405
0.264748,0.0142999,-0.0446288,-0.0020873,0.0554564,-0.00783545
-0.0101322,0.0166491,-0.0413979,3.3021e-05,-0.0264418,0.018401
0.0471383,0.128983,0.0820281,0.00362095,-0.0307162,0.00272095
0.163028,-0.00681812,0.0523571,0.0101283,0.026233,-0.0334094
-0.0121828,-0.065565,-0.0205715,0.00867638,-0.000163957,0.00570148
0.0391921,0.0487446,0.00772589,0.00247902,-0.00869949,0.00184602
0.0106077,0.034935,0.0397631,0.00770357,-0.00554559,-0.00807577
-0.0309217,0.0232243,0.045028,0.00718361,-0.000202045,-0.00157297
-0.00455515,0.0295339,-0.000858558,0.00321168,0.0102114,0.000874102
-0.022503,0.0936783,0.0210955,0.00357693,-0.0110042,0.000615597
0.0294262,-0.0613082,-0.0118963,0.0160435,-0.000464998,-0.0344202
-0.0686422,-0.0761983,-0.0175101,0.00442058,-0.00772439,0.0155317
-0.0527154,0.0668892,-0.0397446,0.00457996,0.00199877,0.0313168
-0.0236576,0.0819053,0.0072765,0.00659657,-0.0200039,-0.0241767
-0.16164,-0.108257,-0.0646608,0.00557834,-0.000914015,-0.0382886
0.086038,-0.00746443,-0.349661,-0.0212077,0.0688612,0.0639349
0.153176,0.512623,-0.394452,-0.0283271,-0.026607,0.0271577
0.00563881,0.283585,-0.100766,0.0500118,-0.0642023,-0.0637377
-0.172333,0.1029,-0.268007,-0.00741866,-0.00725692,0.01229
0.192541,-0.305095,-0.687102,0.0214949,0.146818,-0.0120295
0.868314,-0.413363,0.610021,0.074222,-0.237749,-0.0409585
-1.15658,-0.232348,1.23486,0.0379046,-0.225949,-0.00274426
-3.59295,-0.833996,0.650537,0.0534752,-0.103709,0.0580445
2.55922,0.407242,-0.363392,-0.0119388,0.405884,-0.136672
1.10666,0.165193,-0.743355,-0.0149354,0.110563,-0.00802857
-0.01097,0.412647,-0.217057,0.00262243,-0.126978,0.0437728
0.212373,0.169468,0.0920007,0.0270465,-0.0376697,-0.0404571
-0.0191558,-0.0397841,0.058299,-0.00253758,0.0290854,0.0126498
0.110272,0.040056,-0.0432372,-0.0124192,-0.010769,0.00880736
0.0619118,0.00717457,0.068982,0.00994754,-0.0274055,-0.013592
-0.127558,0.00875276,0.278747,0.0226992,-0.0200335,-0.0293624
0.0771716,-0.117386,0.315591,0.032233,0.0486604,-0.0274926
0.568035,0.281279,0.0455959,-0.0420772,0.0264227,0.0599616
0.304675,-0.151753,-0.301965,0.0193265,0.0460158,-0.0485029
0.0199181,-0.329666,-0.152296,0.0186425,-0.0551583,-0.0108016
-0.339013,0.0600372,0.193215,-0.00760123,-0.0867163,0.0622195
-0.631859,0.369283,0.371749,-0.0319678,-0.010348,0.046154
-0.256234,0.29943,0.294544,-0.0289745,0.0530079,0.0126991
0.376774,-0.0797288,-0.0115469,0.0411545,0.0926289,-0.0646951
0.14419,-0.440195,-0.386172,0.00650343,0.024102,-0.0163151
-0.381767,-0.248501,-0.33596,-0.00130075,-0.114055,0.0386803
0.726314,0.396367,-0.0453772,-0.0162643,0.1554,0.0612433
-0.28019,-0.0481267,0.06165,0.0506092,0.024589,-0.0703936
-0.0499987,-0.0653771,0.0701024,-0.00274786,0.0042344,0.0186161
0.00520704,0.0552108,0.0257209,-0.00135726,0.00145341,0.00168431
0.126724,-0.0174931,0.0405368,0.0114096,0.0128504,-0.0202071
-0.061727,0.0862909,0.0551853,-0.0164162,-0.0659799,0.0383713
0.116222,0.0829539,0.0569436,0.00414437,0.00769382,0.00341642
0.424612,0.0401337,0.13744,0.0142156,-0.020266,-0.0222794
0.165858,-0.0368327,-0.00620181,0.00230271,0.0205175,0.000196517
-0.159765,-0.0431823,-0.113157,0.0118022,-0.0134659,-0.00107634
-0.317546,0.0565511,0.0415985,-0.000734583,-0.0443413,-0.00189602
1.90375,0.028399,0.175107,-0.0144138,0.0848949,-0.0674573
0.219609,-0.174511,0.0857105,0.0189698,0.0158576,0.00593531
-1.22806,0.126494,-0.0605606,-0.00770432,-0.0451702,0.0484062
0.341001,0.382134,0.201153,0.0193567,-0.249782,-0.051135
-0.0316442,-0.169232,-0.0584374,0.0210282,0.0875722,-0.0251046
0.199218,-0.269149,-0.286641,-0.0092583,0.0337524,0.0212975
-0.376405,0.0832207,-0.00366787,-0.0123583,-0.0883097,0.0748265
-0.464781,0.511145,0.324445,-0.0415714,-0.148913,0.0991179
-0.0700291,-0.147538,0.113298,0.0201516,0.120607,-0.100413
0.107081,-0.187744,-0.199902,-0.00278148,0.0544172,0.0136741
-0.00746167,0.0546318,-0.310885,-0.00433654,-0.0284502,0.00776005
0.106198,0.212067,-0.0272704,0.00167798,-0.0214295,0.0411221
0.815361,-0.190944,0.109417,0.00422898,-0.0385995,-0.197452
-0.314248,-0.489635,0.463986,-0.0383549,0.00566316,0.123894
-0.718461,0.590033,0.124253,-9.01222e-05,-0.00491559,0.167358
0.265073,0.100905,0.00182406,-0.0325084,-0.0271596,-0.0751963
-0.535422,-0.0709756,0.32368,0.0169291,-0.056103,0.0159172
-0.538193,-0.0516245,0.392993,0.046189,0.0132574,0.012788
-0.472635,0.128677,0.292706,-0.0427055,0.0170155,0.0337412
-0.0386466,0.0245329,0.178545,0.0102669,-0.022032,-0.0241007
0.0157928,-0.164522,0.212026,0.0495595,-0.0297375,0.00027889
0.0679269,0.100602,0.353675,-0.0368687,-0.0104987,0.0484197
0.324614,0.225027,0.14762,0.00584128,0.091743,-0.0432308
-0.520581,-0.00403459,0.126708,0.00194073,-0.116725,-0.0077247
-0.17593,0.141726,0.552295,0.0232154,0.0180557,0.0161985
-1.33027,0.136519,0.130244,-0.0179041,-0.0117695,0.00164759
-0.6107,-0.446938,-0.292793,0.080295,0.0064503,0.117161
0.471879,-0.140154,-0.316374,0.0600666,-0.00614554,0.0200221
0.427395,-0.0158382,-0.104726,0.014303,-0.0315262,0.010877
0.15316,-0.114008,-0.162811,0.0301346,0.00609007,-0.0274749
-0.0749124,-0.0601368,0.00159387,0.00278303,-0.0338266,0.0118642
0.116466,-0.167207,-0.0578955,0.00354455,0.0206632,-0.00731701
0.214469,-0.230302,-0.0560516,0.0163023,-0.000590414,-0.0312849
-0.0394755,-0.0355187,0.0453741,-0.00675207,-0.00482011,0.00365329
-0.0854264,0.0947774,0.0112356,-0.00798455,0.0153722,0.0175549
0.068528,0.098774,-0.0801005,0.0192687,0.0137862,0.00908661
0.0645114,0.0785563,-0.0372468,0.0345643,-0.0186226,0.00974756
-0.0078417,0.0255506,0.162625,0.0110234,-0.0324023,-0.0240022
-0.046945,-0.035205,0.221639,0.0123816,-0.00657696,-0.0172451
-0.251091,0.134894,0.278535,-0.00839914,-0.0157169,0.0238919
-0.097229,0.0940056,0.175738,-0.00334136,0.0061298,-0.0134135
-0.0438207,-0.0355396,0.0314678,-0.000395715,0.0317183,-0.016547
-0.0260929,0.0487098,-0.0405993,-0.0134924,-0.00569105,0.0119841
0.0800038,0.120055,-0.122933,0.0229101,0.00640309,-0.0148357
0.0919025,0.0282469,-0.084899,0.014102,-0.00836104,-0.0379666
0.160992,-0.185462,-0.0939391,0.00497189,0.0186352,0.0155584
0.170766,-0.0326858,-0.0767304,-0.0345019,-0.0125923,0.0260972
0.102372,-0.0497825,-0.108927,-0.00063476,-0.00796196,0.0103507
-0.0215228,-0.0259671,0.0175999,0.00885342,-0.0215606,0.0360924
0.258017,-0.0231753,-0.0978334,0.00800255,0.0343285,0.00252783
0.407624,-0.109227,-0.373444,0.0116932,0.046431,-0.000635028
0.0501005,-0.129108,-0.290245,0.0113126,-0.0350234,-0.00696337
-0.074534,-0.0707078,0.0657725,0.0153342,-0.0612617,-0.00526041
-0.549383,-0.188482,0.315843,0.0148562,-0.07345,-0.0490038
0.477998,0.209944,0.140812,-0.00245389,0.200906,0.0023393
-0.0292756,0.0124026,-0.0350328,0.0140184,0.0732062,-0.0259663
0.105436,-0.113595,0.0528347,0.00235212,-0.00891218,-0.000590265
0.0608954,-0.048349,0.0821609,-0.00717053,-0.0161946,0.0180368
0.0815317,0.0475618,-0.0391183,0.00949073,0.0239866,-0.00292397
0.0744102,-0.0284756,-0.154046,0.013184,0.00274172,-0.0124218
0.025755,-0.000565819,-0.0967118,0.0048525,-0.00513169,-7.9751e-05
0.0525033,0.0667338,-0.0842287,-0.000899255,0.00465736,0.00527918
0.0410189,0.0697028,-0.223187,0.00584617,0.0246296,-0.00266045
0.14553,0.110993,-0.389742,0.00753587,0.0265181,-0.0128339
0.236926,0.20898,0.096109,0.01674,-0.0228874,0.000984907
0.298697,-0.481784,0.331605,0.118555,-0.0281669,-0.119885
0.35206,-0.378822,-0.0193152,0.00376537,0.0762668,0.043765
0.131185,0.0614179,-0.645901,-0.0340828,0.0977308,0.0630657
-0.0389694,0.531579,-0.63356,-0.0333529,-0.037929,0.0773297
-0.328994,0.802576,-0.336171,0.00610596,-0.0160096,-0.0440674
