rotation_x,rotation_y,rotation_z,acceleration_x,acceleration_y,acceleration_z
-0.0275033,0.00214542,0.00763885,-0.00363744,0.0181089,0.0130616
0.032151,-0.0149309,-0.00773544,0.0014357,0.00177974,0.00212657
0.0342921,-0.014937,-0.00557483,0.00265305,0.00671083,0.00786614
0.0104493,-0.00533539,-0.00156532,0.00162866,0.00293061,0.00973022
0.00405274,0.0042526,-0.0112829,-0.00254252,0.00385985,0.00806832
0.014801,-9.31881e-06,-0.0047256,-0.00290347,0.0051057,0.0106658
-0.0219593,9.54978e-06,-0.00515267,0.000663429,-0.00639674,0.00842935
-0.0482779,-0.00104146,0.0298878,0.00278792,-0.00454432,0.00879848
-0.0427364,0.055369,0.0116839,-0.00351655,-0.00268832,0.0123346
-0.0189286,0.0691869,0.00872354,0.00302888,-0.00488999,0.0124571
0.122892,0.0243828,-0.00246774,-0.0134403,0.0120956,0.00803214
0.0818799,0.0052544,-0.00826665,0.000958918,0.000168175,0.00509745
-0.0208605,0.00532946,-0.00728966,0.00296648,-0.00166115,0.0112735
0.0137501,0.00636555,-0.0079732,0.00200246,-2.54512e-05,0.00498116
-0.00580266,-0.0266199,0.00361776,-0.00240954,-0.00220591,0.00692117
-0.018797,-0.00744869,0.00345314,0.00765743,0.00906444,0.0113537
-0.0134095,-0.0117086,0.00566296,-0.00678209,0.0228817,0.0110942
-0.0265769,-0.0532225,0.0280352,-0.00612318,-0.0115361,0.00627661
-0.0100665,-0.0191703,-0.00287044,0.0119298,-0.0101579,0.00733685
0.0332437,0.0308361,-0.013129,-0.000269337,0.00706583,0.0129
-0.0480619,-0.0148781,0.0106267,-0.000134652,-0.00118512,0.0101978
-0.0274708,-0.015964,0.00656879,0.00267376,-0.00209936,0.00354314
-0.0154605,0.0127712,-0.00724289,0.00128922,-0.00194585,0.00717819
0.020125,0.0180681,0.00172468,-0.00313786,0.00888404,0.00651598
0.0039014,0.00104656,0.0036972,-0.00121565,0.00257725,0.00861692
-0.0188238,-0.00213089,0.00558392,0.0027649,-0.000474215,0.00199294
-0.00482993,0.0148913,0.0100112,-0.00491126,0.00994799,0.01975
-0.202936,0.00863835,0.0313206,-0.00137732,-0.0243855,-0.00975055
-0.579085,0.108984,0.00554894,-0.00386223,-0.0353797,0.0114724
-0.802517,-0.115503,0.194897,0.022272,0.0308458,-0.00917625
-0.261802,-0.0381681,0.0810229,0.00858016,0.0228672,0.00598824
0.147784,-0.00970183,-0.0010852,-0.00923436,0.0133782,0.0117808
0.0309652,-0.0096163,0.00187449,-0.00181608,-0.0258324,0.013911
0.0321292,0.0766031,-0.0142654,-0.00613903,0.00793747,-0.0352327
0.0946108,0.105294,0.00568931,0.0104801,0.00493803,-0.0044533
0.0842803,-0.0554524,0.0785381,0.0325399,-0.00774918,-0.00468177
-0.201844,0.176827,0.0140351,0.0335252,-0.0218518,-0.00312173
-0.204969,0.0767439,0.115817,0.0448669,0.0316205,-0.00108075
-0.0700071,-0.0735025,0.357341,0.122658,-0.0496143,0.00346595
0.190306,-0.208973,0.709476,0.0336846,-0.0726306,0.0491718
-0.232795,0.0286589,0.920731,-0.0240857,-0.0141795,0.0386004
-0.331801,0.0818626,1.2836,-0.0330875,-0.0224471,0.0333652
0.169131,0.0890334,0.947713,-0.118485,0.0513774,0.0342413
-0.323624,0.222548,0.590806,-0.0370622,0.123607,-0.0303554
-0.336113,0.136395,0.345552,0.0198785,0.0339993,0.0574958
-0.298334,-0.00409338,0.158744,-0.0209065,-0.0235187,0.0750505
-0.530721,0.169644,-0.0753369,-0.0393116,0.0460076,0.0179546
-0.115306,0.0298955,-0.0779861,-0.00642646,-0.0111342,0.0233098
-0.0741904,-0.00209763,0.0263682,-0.00409624,0.0102678,0.0110941
-0.011794,0.0926188,-0.0554587,-0.00671021,0.0147116,0.0246038
-0.1356,-0.0552735,0.00966161,0.0295451,0.0450198,0.0180086
-0.0243972,-0.00213366,0.021578,-0.0167962,0.0207475,0.00840825
0.0241507,-0.0181352,0.0339272,-0.00493618,0.0139689,0.026638
0.120592,-0.0171353,0.0146772,-0.0145645,-0.0090303,0.0254582
0.10459,0.0211721,0.0936848,-0.0164157,-0.0476246,0.0207461
0.0362164,0.0457252,0.0115102,-0.00339546,-0.025842,-0.000451624
0.135925,0.0126605,-0.00659724,-0.00338768,-0.0101076,0.0161229
0.0929636,0.0488893,-0.0381741,-0.031734,-0.0363806,0.00366569
0.0994567,0.00949938,-0.0348483,-0.0276094,-0.0396408,0.0108867
0.0895034,0.019082,-0.0146265,-0.00309456,-0.0223109,0.00655234
0.105653,-9.95575e-05,-0.00586781,0.0164703,-0.0457694,-0.00521535
0.0647874,-0.0362776,0.0793694,0.00325202,-0.0146325,0.0156897
0.176227,0.0849435,0.268962,-0.00658453,0.0421013,0.0423946
0.0669984,0.0797228,0.167076,0.00675902,-0.0333045,0.0127253
0.427266,0.0804785,0.357468,-0.00349593,0.0339588,0.00217623
1.16906,-0.0116929,0.679685,0.00561599,0.00754066,0.0255344
-0.0386737,0.289406,0.531856,-0.0392393,-0.0848162,0.0199408
0.269387,0.357275,0.641278,0.018553,0.0809429,-0.0105663
0.580457,0.241037,0.583889,-0.0282616,0.0243159,-0.00449091
-0.184539,0.122425,0.432942,-0.02702,-0.0617552,-0.015445
-1.53605,-0.611082,0.484731,-0.063417,0.0194802,0.00469875
-1.12969,-0.404798,0.176478,-0.020252,0.10429,0.0292388
-1.21393,-0.478158,0.0706649,0.0316566,-0.0857951,-0.00203145
0.0589453,-0.326891,0.149186,0.0550026,-0.0254686,-0.0479845
-0.521574,-0.0911581,-0.09747,0.0141992,0.00645474,0.108638
-1.30549,0.346902,-0.0436104,0.0276224,-0.167453,0.0195559
-2.24319,0.539195,-0.0480022,-0.000354975,-0.152782,-0.0554147
-1.21324,0.144563,0.0475767,-0.0259419,0.0214258,-0.10109
-2.02273,0.00782855,0.119921,0.0143762,0.132882,-0.0362724
-0.940486,0.0187559,0.0357977,0.00744957,0.0832762,0.0947559
-0.0333891,0.0873037,-0.0578513,-0.0213995,0.0110416,-0.0101128
-0.194888,0.104471,-0.127154,0.0250725,-0.0380089,-0.0145137
0.149932,0.190434,-0.122267,0.00904101,0.0109155,-0.0782723
0.108398,0.0552659,-0.0669228,0.0670834,-0.0368773,-0.0820722
-0.0663977,-0.232008,-0.0761127,0.0227151,-0.0335809,-0.0944014
0.0813712,-0.343924,0.0745011,-0.00561109,-0.0931793,-0.0162778
0.226482,-0.00977435,0.0222806,-0.0133724,0.0203229,0.0329523
0.239851,-0.0449065,-0.0118009,0.00454596,-0.0116878,-0.0198255
0.245027,-0.0151145,0.00749572,0.000782758,0.00407076,-0.00327271
0.00786173,-0.0458131,0.043392,-0.00523695,-0.0248379,-0.0231853
-0.0515993,-0.0755744,0.0448897,-0.00435105,-0.00617886,-0.0179786
0.0680365,-0.106546,0.0858883,-0.00779811,-0.00709277,-0.0138472
0.145291,-0.0831919,0.141355,-0.00996476,-0.0107883,0.000798345
0.17783,-0.0608654,0.129916,-0.00665012,-0.00768852,-3.35574e-05
0.0736176,-0.0692866,0.065573,-0.00257418,0.00167459,-0.00815195
0.0114432,-0.0468766,0.0113063,0.0155823,-0.0978007,-0.0734908
-0.179055,0.0522538,0.0186825,-0.00064981,-0.00545019,0.00257033
-0.212321,-0.0371551,0.106198,-0.0164072,-0.0228546,0.0129813
0.215657,-0.0874717,0.0308041,0.00139952,-0.0108811,-0.00830102
0.151198,-0.0192954,-0.0160459,0.000361413,-0.0487356,-0.00649697
-0.0423108,0.0244947,-0.0257738,-0.0102498,-0.00998998,0.0155993
0.0834967,0.0999887,-0.0683242,-0.00407109,-0.0181434,-0.0109224
0.0239615,-0.0468631,-0.0485027,-0.00297135,-0.0234566,-0.000675678
-0.00643703,0.0180597,0.0602968,-0.0106418,-0.0143554,-0.00490177
0.00166765,-0.0702865,0.0176465,0.0127108,-0.00608027,-0.00564605
-0.0977552,-0.0435989,0.00899948,-0.008432,-0.0309441,0.000636995
-0.0440782,-0.0915207,-0.0524431,-0.00492024,0.00469327,-0.00511402
0.00926082,0.0499985,0.00369734,-0.00896651,-0.00684857,-0.00632358
-0.00456653,-1.5853e-05,-0.0135401,-0.000659317,-0.0125981,-0.00941283
-0.124559,0.0277206,0.0835751,-0.00521451,-0.0139812,-0.0231401
-0.0739153,0.0266418,-0.00257703,-0.00838849,-0.00556886,-0.000240624
0.0237712,0.0776713,-0.042212,-0.00481486,-0.0202926,-0.00570339
0.0674855,-0.0181516,-0.0769528,-0.00394967,-0.00425082,0.00661969
0.14253,-0.0650363,-0.113534,0.00203532,-0.0338826,-0.0173287
0.0938542,0.0329335,-0.121676,-0.00731727,-0.00554013,-0.00121433
-0.0376682,0.0755961,-0.0611035,-0.00406942,-0.0012598,-0.00326657
0.317017,0.110482,-0.167414,0.0334735,0.023591,0.0179245
-0.25114,0.00977022,-0.115922,-0.0344147,-0.0720677,-0.00304377
-0.720983,0.0867159,0.0307152,0.0293631,-0.156253,-0.0431736
-0.143562,0.27474,-0.0881927,0.0178085,0.0251437,0.0265574
0.216325,0.219114,-0.0626484,-0.0271329,0.0264804,0.0543529
0.129087,0.22022,0.00702359,-0.0256241,-0.0447255,-0.0431864
0.00417414,0.107464,0.0710353,-0.0551251,-0.0178324,-0.00870156
0.0191817,0.0031267,0.0937901,-0.00508901,-0.0366102,-0.0559613
0.0140494,-0.170373,0.0842695,0.0549973,-0.00179905,-0.0126516
0.534062,-0.275033,-0.100333,0.119344,0.0882318,-0.0404816
2.41629,-0.186927,-0.377819,-0.0306597,0.121019,0.065784
2.80245,0.328081,-0.748709,-0.12658,-0.238172,0.181325
0.730135,0.608522,-0.839917,0.0073469,-0.0559973,0.0283098
0.113522,0.295895,-0.373346,0.265147,0.0427992,-0.067054
-0.761463,-0.615782,-0.0632777,0.0421311,-0.156872,-0.0391933
-0.897189,-0.186759,0.155327,-0.010631,-0.0747288,-0.0289568
-0.799371,-0.0483782,-0.112447,-0.0083811,0.0046379,0.0392895
0.0682944,0.029783,-0.262242,0.00878321,-0.00624731,0.0963726
-0.601678,0.3048,0.182816,-0.119843,-0.0634343,-0.00881052
0.032877,0.0978369,0.119535,0.0237725,0.0517658,0.0190686
-0.0425974,-0.0223587,0.00637946,-0.00912946,-0.0301496,-0.000193357
0.00630837,-0.0245248,-0.0166291,0.00314118,-0.00470835,0.00982982
-0.0272617,-0.0287598,-0.0116524,0.00943543,-0.0112244,0.00096792
-0.0044306,-0.0202546,-0.0242469,-0.00493541,-0.0171883,0.00430721
0.0266826,-0.00112305,-0.00249938,-0.000141382,-0.000732183,0.015733
-0.0134635,0.0159353,0.0088072,-0.00301075,-0.00015676,0.00689691
-0.0101024,-0.0223893,0.00138387,-0.00100593,-0.016193,0.00454116
0.0179091,-0.00217699,0.00918917,0.0020012,-0.0130413,0.00109482
0.019998,0.00632663,0.0156174,0.00194767,-0.00361836,0.0103236
0.0069841,-4.88758e-05,0.0197626,0.00236164,-0.00691938,0.000259638
0.0329872,0.00206467,0.0147047,-0.0046431,-0.0100945,0.00381607
0.0328808,-0.0266751,0.0275856,-0.00437319,-0.0118809,0.00677085
0.0241947,-0.0458332,0.0328562,0.00242774,-0.0112842,0.00610662
0.0446176,-0.00327222,0.0405397,0.00171109,-0.00911781,0.00562191
0.00376693,-0.00536336,0.0175963,-0.000106543,-0.0119074,0.00479901
-0.0144675,-0.00641201,0.00346983,-0.00436626,-0.0100265,0.00739431
-0.0166046,-0.00960235,0.00130852,-0.00160632,-0.0162385,0.00191134
-0.0101182,0.0021047,0.000302837,-0.000200033,-0.0157707,0.00312209
0.0180374,0.00527101,-0.00367358,0.00243974,-0.00774664,0.00912863
0.000689166,0.00741781,0.000418453,-0.00218531,-0.00142321,0.00857019
-0.0176804,-0.00427712,0.000222693,-0.00345743,-0.0139061,0.00374401
0.0125079,0.00421314,0.00804976,-0.00341526,-0.022829,0.00735897
0.0115292,0.00208864,-0.00159412,0.00402045,-0.00894302,0.00714958
-0.00908169,0.0138098,0.00351202,-0.000405729,-0.00265634,0.00901604
-0.00252296,-0.00109806,-0.00175486,-0.000649124,-0.00880283,0.0140057
0.0126201,0.00421427,-0.0026581,-0.00140966,-0.0126572,0.00398403
0.00938723,-0.00748876,-0.00267845,0.000327945,-0.0106472,0.00308913
0.00936344,-0.0064233,-0.000536378,0.000624374,-0.00731835,0.0057475
-0.00474429,0.00103452,0.00357576,0.000946835,-0.0106633,0.00508744
0.0255742,-0.0085697,0.000713461,-0.000796452,-0.0281274,-0.0077008
0.109518,-0.158671,-0.153428,0.0212956,-0.0155813,0.00111771
0.0150378,-0.0701805,-0.434045,0.0555058,0.0422078,0.0204093
1.06509,0.186678,-0.565882,0.0887391,0.127998,0.0558119
0.459384,0.153035,-0.44636,-0.0246911,-0.0268283,0.025924
0.166036,0.27132,-0.118952,-0.0660281,-0.00702819,0.00544471
-0.0598713,0.0159881,-0.0002636,-0.0898909,0.00681707,-0.0221521
-0.545436,-0.100781,0.117476,0.0358911,-0.014343,-0.0071702
-0.58958,-0.0304886,0.0922789,-0.0061572,-0.0249585,-0.00334585
-0.242609,-0.00836591,0.000895302,0.00861696,-0.00145695,0.0022108
-0.18353,-0.0286222,-0.0626638,-0.0199289,-0.0271345,0.00041759
0.115452,-0.0448159,-0.00785673,0.00264766,-0.0656328,-0.0167356
-0.0686756,0.00427432,0.0157,-0.00828601,-0.00931162,0.0129701
-0.0876993,0.03517,-0.0295154,0.000451438,-0.00566456,0.00188303
0.0820312,0.0361143,-0.0254446,0.00334582,-0.0202861,-0.00883216
-0.172149,-0.0424763,-0.0121908,0.0123929,0.00324622,0.00277781
-0.0521544,-0.00849972,-0.011933,-0.00247715,-0.00491267,0.00958371
-0.0241901,-0.0159804,0.00337502,0.00178352,-0.00118113,0.0121164
-0.00267497,-0.0191878,0.014335,0.007805,-0.0104313,0.0102097
-0.0220437,0.0202199,0.00123423,0.00169338,-0.00888816,0.00403023
0.0190714,0.00421974,0.000641236,-0.00302549,0.000340879,0.00785571
-0.0112171,-0.0032149,0.00244022,-0.00402813,0.00127468,-0.0095402
0.000540243,-0.00215781,0.0154269,0.0048584,-0.00361899,0.00215036
-0.000326137,0.0180725,-0.00708921,-0.00263065,-0.00348806,0.00848413
-0.0327493,0.00425719,-0.00744444,-0.00325404,0.00395301,0.0120802
-0.0210726,-0.0138525,0.0151916,-0.00214815,-0.0131399,0.00440764
0.0104211,-0.0064194,0.00162369,0.0106392,-0.00722745,0.0117939
-0.00481754,0.0159461,0.00892708,-0.00719494,-0.0025413,0.00746065
0.00844965,0.00423011,-0.017684,0.000308201,-0.00753736,0.00799906
-0.00567298,0.00423613,-0.0114233,0.000225112,0.000741422,0.00632036
0.00168274,-0.00747961,0.0100915,0.00245138,-0.000593573,0.00913215
0.00704123,-0.00323234,0.0144238,-0.000176147,-0.00787976,0.00587046
0.00811956,-0.00110083,0.0144382,-0.000790924,-0.00641376,0.00808352
0.0126342,-3.74867e-05,-0.00371701,-0.00398526,-0.00680402,0.00803298
0.00513728,-0.00534986,-0.0102175,0.000583366,0.000625104,0.0113716
-0.00125341,-0.00108634,-0.0199325,0.00110683,-0.00524309,0.00616783
0.00828677,-0.00109437,-0.00161751,-3.82662e-05,-0.00381157,0.00514591
-0.0133569,0.00637352,-0.00079822,-0.000149041,-0.00271788,0.00643945
-0.00150446,0.00422859,0.00361322,-0.00165665,-0.00385362,0.00756806
0.000672122,-2.47648e-05,0.00257881,-0.00391205,-0.00675315,0.00678319
0.000729895,-0.00109128,-0.00277737,0.000446051,-0.0104689,0.00253743
0.00183667,0.00530258,-0.0059743,0.00265074,-0.00144321,0.00644207
0.00165792,0.00635726,0.0111471,-0.000627041,-0.00247902,0.00608987
0.00390403,-2.46624e-05,0.00368967,-0.00452784,-0.00632486,0.00894362
-0.0089633,0.00530531,-0.00717443,-0.00140189,-0.00412649,0.00646454
0.0136832,-0.00216464,-0.000486559,0.00113541,-0.0030818,0.00777018
0.0125457,-0.00216363,0.0048561,0.00259688,-0.00643951,0.0063166
-0.00353464,0.00318182,-0.0092409,0.001333,-0.00311378,0.00771832
-0.00685962,-0.00321269,-0.000716692,0.00125903,-0.00172952,0.00745338
-0.00257282,0.00104271,0.00254177,-0.000636861,-0.00246608,0.00876671
0.00927662,0.00103071,0.00695616,-0.00171149,-0.00439405,0.00605702
0.010392,0.00102825,0.00375351,0.00150907,-0.00339818,0.00734252
-0.000445802,0.00316832,0.00577475,0.000848368,-0.00417846,0.00596499
-0.0089448,-0.00320493,-0.00822986,0.00104573,-0.00231284,0.00813806
-0.0175976,0.00105318,-0.00833994,-0.000606284,-0.00392008,0.00729173
-0.0014224,-0.00108511,-0.003867,-0.000771493,-0.0062781,0.00729966
-0.00678863,0.00423982,-0.00821907,-0.00250113,-0.00827181,0.00429678
0.00829057,0.00529699,-0.00268903,-0.00144045,-0.00441471,0.0050438
0.0125665,-3.66252e-05,0.00270966,0.00118545,-0.00355041,0.00773728
0.00174452,-0.00215568,0.00366261,0.00014779,-0.00426644,0.00759143
-0.0111548,0.00104701,-0.00398446,7.94381e-05,-0.00503194,0.00648814
-0.00255002,-1.84542e-05,0.000405174,0.00108993,-0.00538987,0.00681996
0.010412,0.00315863,0.00161137,-0.00210437,-0.00472596,0.00754964
-0.0112247,0.00423697,0.00243354,-0.00604519,-0.00401977,0.00785178
-0.00469784,-0.00215136,-0.000695208,-0.00203285,-0.00577104,0.00829864
0.0071043,-0.00215337,0.0080156,0.00340113,-0.00654802,0.00703365
0.0147053,0.00102694,0.00487584,0.00113058,-0.00611132,0.00644809
-0.00357505,-1.75536e-05,-0.00496159,-7.97063e-05,-0.000271767,0.0081321
0.000665979,-0.00428627,0.00364937,-0.00203066,-0.00203958,0.0077014
-0.00153383,-0.00214947,0.00684349,0.000146911,-0.00479484,0.00880235
-0.00586328,0.00317236,0.00678447,1.12504e-05,-0.00694129,0.00503039
-0.00151998,0.00636678,0.00469379,-0.00305142,-0.000811815,0.00757354
-0.00923477,-0.00427539,0.0196077,-0.00110179,-0.00199342,0.00754625
-0.00479439,-0.006411,0.00894515,0.000534028,-0.0102076,0.00392252
-0.00685454,0.00317314,-0.00179524,0.00237003,-0.00602812,0.00681478
-0.00142226,-0.00214558,-0.00386086,-0.000631243,-0.00589502,0.00882155
-0.00374954,-0.00322074,0.012164,-0.00392374,-0.00471431,0.00908142
-0.0175761,-0.0106495,-0.009391,-0.00308956,-0.00852683,0.00666237
0.0212585,-0.00855763,-0.000395195,0.00726557,-0.000957876,0.00452143
0.013684,0.0074192,-0.00156244,0.00576718,0.000281394,0.0121941
-0.00262352,0.0074266,0.0068154,0.00193743,0.00478974,0.0131664
-0.0111443,0.00105035,-0.00505115,-0.000132754,-0.00299439,0.00501364
-0.0035856,-0.00108044,-0.00388759,-0.0018582,-0.00363395,0.0058623
0.0278483,-0.0010996,-0.0110237,0.000827923,0.000674933,0.0115106
0.014659,0.00209249,0.00915987,0.00148636,-0.000515193,0.00426745
-0.00678793,0.00105718,-0.0082022,0.00302118,0.000628531,0.00752735
-0.0186123,-1.8198e-06,-0.0147657,-0.000588343,-0.0080674,0.00942481
-0.0119785,-7.14604e-06,-0.0286149,0.00730741,-0.0118127,0.00788522
-0.0141331,0.0138358,-0.030791,-0.000209868,-0.00498971,0.00654638
0.0224105,-0.00216486,-0.00787722,-0.00068073,-0.00318468,0.00692391
0.00945871,-0.00215812,-0.0101697,-0.0008412,-0.00544563,0.00720429
-0.0102878,0.00210839,0.0163715,-0.000755832,0.00113621,0.0069086
0.00255182,-0.00854686,0.0304499,0.00241925,-0.00430304,0.00545722
-0.0306136,-0.0031937,-0.00419719,-0.000983074,-0.0120595,0.00612241
-0.0198147,-1.22478e-05,-0.00301198,0.00224459,-0.00583422,0.00546592
0.0644767,0.000987913,0.00222369,0.00548977,0.0112403,0.0143595
-0.0155252,-0.0223623,0.00242289,-0.000700757,-0.0250662,-0.00318098
-0.0329459,-0.0117145,0.0129132,-0.0031354,-0.00667384,0.00780016
-0.00910708,0.00317507,0.00674811,0.001197,-0.00505829,0.00362885
-0.00261862,0.00316597,0.00681615,-0.00183783,-0.0033395,0.00644678
0.0244024,0.0010211,0.0082006,0.000289291,-0.0041846,0.00949699
0.0124833,-0.00642524,0.0112812,0.000973761,-0.00138485,0.00748283
0.00947085,0.00742537,-0.012317,0.00291885,-0.00369191,0.0105365
0.0418584,0.0127214,-0.00767397,0.00119796,0.00104076,0.00498348
-0.00146015,0.00317164,-0.000659878,0.00132797,-0.00542641,0.00754303
0.00506673,0.00849024,-0.00487406,-0.000201896,-0.00637564,0.0087105
0.0320978,-0.00323697,-0.00348276,-0.00686168,-0.00602788,0.00399911
-0.00683682,-0.003214,-0.00286022,0.00234507,0.00153697,0.0104153
0.0158365,0.00741242,-0.000473598,0.000256695,-0.00264299,0.00971216
0.106747,0.0328945,-0.0101768,-0.00262975,0.00533304,0.0154271
0.00397416,-0.0128031,-0.00165831,0.00162534,-0.0131458,0.00401253
-0.01327,-0.0127883,-0.0072065,0.000785038,-0.0141064,0.00378895
-0.00905197,-0.00640744,0.00247104,-0.00279265,-0.0103719,0.00649887
0.127121,0.0137092,0.00826853,-0.00240185,0.00129905,0.00701773
0.186633,0.00196494,0.00575241,0.00168625,0.0238584,0.00877726
0.0817769,-0.010733,0.00350357,0.00441736,-0.00425139,0.00833505
0.017051,-0.0138753,-0.0111463,-0.00259382,0.00382385,0.0108462
-0.0262377,-0.00852154,-0.00842953,0.0020126,-0.00494161,0.00607342
-0.0241313,-0.007464,-0.00305821,0.00358538,-0.0115424,0.00811851
-0.000320065,0.00315958,-0.0060166,0.000971414,-0.00501275,0.00599575
0.0115302,-3.56836e-05,-0.00158613,-0.00151139,0.00863713,0.00723982
-0.00683753,-0.00109122,-0.00287016,-0.00318238,0.00174147,0.00898916
-0.00578736,-0.00322328,0.000354041,0.00398657,-0.00326991,0.00758368
0.0115089,-4.08255e-05,0.000549197,0.00330032,-0.0092797,0.00503677
-0.00579325,0.0021015,0.00035184,-0.000234373,-0.00414687,0.00811672
-0.0252202,0.00210839,-0.00309099,-0.00398359,-0.0042122,0.00508684
-0.0101147,-0.00215009,0.000311004,-0.000871167,0.00237399,0.00678533
0.00606058,-0.00216898,0.0047697,0.00252639,-0.00198257,0.00635844
0.00822872,0.0042128,0.00371254,0.00310471,-0.00391424,0.00666147
-0.0241388,0.00104712,-0.00307259,-0.00165725,-0.00532687,0.00719839
-0.0176858,-0.00960155,0.00129627,-0.00119317,-0.0110972,0.0085023
-0.0144694,-0.00534385,0.00347346,0.0021461,0.000344276,0.00988305
0.0061218,0.00315741,-0.00165604,0.00197645,-0.00190273,0.00682878
0.0136233,0.00315083,0.00485404,-0.000600502,0.000981927,0.0092324
-0.00796149,0.00954698,0.000310507,-0.00206708,-0.00197726,0.00429165
-0.0208984,-0.0074682,-0.00195283,0.000120051,-0.00191724,0.00948322
-0.0285485,-0.00533124,0.00545889,0.00325435,-0.0137627,0.00604987
-0.144095,-0.00524874,-0.0097778,0.00452085,-0.0125336,0.00642467
-0.0868063,0.0117422,-0.00914322,-0.00322519,0.00807083,0.00722581
-0.0112343,-0.00641744,0.00457366,-0.00103317,-0.000118613,0.00954401
-0.0166741,-0.00853365,0.00773842,0.000258483,-0.00812045,0.0076797
-0.0133082,0.00423767,-0.00508861,0.00253709,-0.0129511,0.00362796
0.0157893,-4.57009e-05,0.00487978,0.0039563,-0.00451922,0.00694799
0.0115436,0.0106024,-0.00374694,-0.000682369,-0.0021407,0.00850803
-0.0143313,0.00211025,-0.0104525,-0.0049812,2.42591e-05,0.00910628
0.00178241,-0.00429334,0.00044086,-9.11802e-05,0.00122061,0.0118023
-0.00906422,-0.00428338,0.00353364,0.0048916,-0.00798148,0.00426531
0.00822336,-0.00217181,0.00479264,0.00454538,-0.00543171,0.00576693
0.0104796,0.00315839,-0.00481452,0.000145011,0.000690073,0.0112044
0.041802,0.00313473,-0.00124709,-0.00443344,0.00135818,0.00605422
0.0103746,-0.0149401,0.00698048,0.00147534,-0.00713357,0.00355947
0.0754065,0.0190738,-0.0105256,0.007487,-0.00203463,0.000210524
0.0191381,0.00634289,-0.00579381,-0.00209474,0.00160623,0.0177345
0.00823063,-3.49255e-05,0.00372969,-0.000720046,-0.00637347,0.00862163
-0.0112261,-0.00428424,0.00350602,0.00148584,-0.00915509,0.00545955
-0.00804952,-0.00428824,0.00996631,0.00246083,-0.00778219,0.00770104
0.014782,0.00421513,-0.00263047,0.00250667,-0.00401664,0.0052042
0.0212093,-0.00218051,0.00386984,-0.000840291,-0.00128961,0.0111285
-0.0122428,-0.00427079,-0.00291572,-0.00294224,-0.00684062,0.00715995
-0.000338458,-0.00215745,-0.00386267,0.0032509,-0.00787267,0.00646645
0.00290392,-3.42904e-05,-0.00383234,2.73064e-05,-0.00580382,0.00527501
-0.00790844,-0.00108646,-0.00394831,-0.00425844,0.00117937,0.00800914
-0.0210669,-0.00746912,0.0141099,0.00455263,-0.00307173,0.00608963
0.00062692,-0.00855135,0.00792818,0.00195646,-0.0105739,0.00651193
-0.0165122,0.0106218,-0.00942193,-0.00241552,-0.0106704,0.00570863
0.0244791,-0.00431807,0.00175895,0.00767394,0.00258383,0.00803351
-0.0220354,0.00423758,0.00230166,-0.0029735,-0.00361937,0.0117921
0.00837761,0.00102163,-0.0102035,-0.0010278,-0.00292334,0.00693715
0.0060815,-0.0106897,0.003701,0.00425066,-0.0068374,0.00690454
0.0158504,0.00634115,-0.00155211,0.000466414,-0.00355554,0.00795263
0.0158426,0.00314657,-0.000479492,-0.00128697,0.0074797,0.0120922
0.00175784,-0.00110478,0.00257338,-0.0027312,0.00745124,0.00910753
-0.00256372,-0.00323605,0.00251948,0.00199205,-0.00332606,0.00758207
-0.00259433,0.0031582,0.00466442,0.00193003,-0.00335112,0.00591999
-0.00363013,0.003157,0.000365901,-0.0010336,-0.00323564,0.00573516
-0.0176131,-0.00109656,-0.0062224,-0.00192514,-0.00330123,0.00891328
-0.0814951,-0.00317496,0.0016287,0.00035768,-0.00661492,0.0112618
-0.05874,-0.00744853,-0.00239214,0.00351854,0.0121021,0.00356984
-0.0144343,0.0180647,-0.001917,-0.000544921,-0.000108719,0.00247425
0.012899,-0.0032435,-0.0283612,0.00591603,0.0045357,-0.00431472
-0.069292,0.0223739,-0.0303767,-0.00175598,-0.00695601,0.00411499
-0.129817,-0.001007,-0.0310487,-0.000670359,-0.0110396,0.00926471
-0.027332,-0.025568,-0.0052321,0.000452742,-0.00395611,0.00456518
0.011576,0.00102063,-0.00588127,-0.000520244,-0.00283334,0.0120155
-0.00681271,-0.0117485,-0.0039465,0.0022248,-0.00146994,0.00809932
0.0125687,0.00207356,0.0026837,0.000692278,-0.00630477,0.00360292
0.0988454,-0.0118263,0.0261698,0.000830233,0.00391641,0.00788057
0.0101612,-0.0341163,0.0294692,0.0121545,0.0150379,0.0153098
-0.065251,-0.0170269,0.000752983,0.00506122,-0.0185526,0.00850731
0.0318541,0.010574,0.0189585,-0.00179215,0.0104733,0.0187447
-0.009929,0.00529279,-0.0179129,-0.000267662,-0.0180011,-0.000130713
-0.00034137,0.00315444,-0.00388127,-0.0020271,0.00306419,0.0115755
-0.00136228,-0.00216177,-0.00923607,-0.00316075,-0.000307828,0.0090872
0.00823688,-0.00324154,0.00371609,0.000306033,-0.00500455,0.00774777
0.027706,0.00100313,0.00286292,0.0022103,-0.00277311,0.00588888
0.0114942,0.00527355,0.0016047,0.000618443,-0.00112185,0.00784868
-0.00368314,-3.65023e-05,0.00572361,0.0018546,-0.00233036,0.00450033
-0.00249377,-0.00642631,-0.00389892,-0.00137814,-0.0052017,0.00660229
0.00282119,-0.00536489,0.0047299,0.00356098,-0.00301275,0.00727946
0.000782342,0.00422439,-0.00814581,-0.000120014,-0.00177518,0.00809205
0.00286887,0.00315093,-0.000633139,-0.0019057,-0.00211561,0.00888175
-0.00797719,0.00209857,0.00246344,0.000461102,-0.00403813,0.00747395
-0.0132928,0.00103993,-0.00616186,0.00236447,-0.0056186,0.0052135
-0.00468722,-2.89232e-05,-0.00177652,-0.00218448,-0.00657272,0.00392878
0.00184597,-3.6953e-05,-0.00599085,-0.002105,-0.00675127,0.00531161
0.0061223,0.00421511,-0.0016657,-0.000283241,-0.00356618,0.008488
0.0060554,0.00421259,0.00475667,0.0014106,0.00121439,0.00926608
-0.0121942,0.00636076,-0.00829768,-0.000996664,0.00305158,0.00827813
-0.026277,-1.89058e-05,-0.0052419,-0.000969641,-9.17017e-05,0.00724834
-0.0165654,-0.00321818,-0.00298492,-5.03659e-06,-0.00845057,0.00749093
-0.00576925,0.00103511,-0.0017914,0.000433378,-0.0113212,0.00584227
0.00724828,0.00315552,-0.00592889,-0.00575386,0.00100112,0.0110486
-0.0154183,-0.00215199,-0.00939611,-0.00205676,0.00668246,0.0125997
-0.0208975,0.00423504,-0.00304295,0.00326407,-0.00279376,0.00621909
0.0125276,0.00634476,0.00590918,0.000337824,-0.00578165,0.00367868
0.0298482,0.0201665,0.0028741,-0.00166875,-0.00470158,0.00905156
0.00610469,-0.00110529,0.000483932,-0.00270098,-0.00138551,0.00579369
-0.003665,-0.00536563,0.00464937,0.000244677,-0.00753984,0.00954473
-0.00905168,-0.0032291,0.00244871,0.0032625,-0.00972581,0.00677049
-0.0025649,0.00741625,0.00144761,-9.11951e-05,-0.0040586,0.00883055
-0.000458727,-0.00323221,0.00790552,-0.00665372,-0.00482559,0.00829977
0.0421983,-0.0256332,0.0672996,-0.00767607,-0.0173765,-0.000228524
0.17854,-0.140701,0.070023,0.00286899,0.0401353,-0.0114334
0.672046,-0.21346,0.142078,-0.0680446,-0.000181019,-0.00113857
0.362275,0.0305265,0.166169,0.0129477,-0.0561392,0.0573722
0.0185069,0.131905,0.146108,0.112089,0.0399985,0.0214521
-0.144162,0.0447196,0.198952,0.000625931,-0.101209,-0.0159515
-0.402613,-0.0412828,0.104033,-0.0209327,0.0696983,0.00102317
-0.106604,-0.0329625,0.027078,0.0126362,-0.0075081,-0.00300431
-0.0812651,-0.0436177,-0.0165277,-0.0053433,0.00350836,0.0159181
-0.0557543,-0.00639412,0.0222652,0.00546055,-0.0136542,0.00322884
-0.0101438,0.0170045,0.00135539,-0.00246811,0.00348911,0.00502735
-0.0530935,-0.00318235,-0.0258799,-0.00202903,0.00547919,-0.0050118
-0.179807,-0.0786184,-0.20712,0.00448729,0.0335826,-0.0656172
-0.0618111,-0.35228,-0.192668,-0.0825165,-0.0405031,0.0166836
0.174228,-0.0800441,0.166284,-0.0234423,-0.0181869,0.114482
-0.174964,0.212927,0.232709,0.0775308,-0.0057103,0.0377784
-0.212534,0.0447911,0.118945,0.0742853,0.0663691,-0.0712874
-0.14388,-0.0850845,-0.0225501,-0.00637875,-0.0294837,0.00317204
-0.167044,-0.0180163,0.0145955,-0.0053198,-0.00844514,-0.0114934
-0.203497,0.00756635,-0.017964,0.00172101,-0.0116521,0.0130691
-0.181016,-0.000973588,0.00478188,-0.00246747,-0.00601816,0.00371587
-0.126224,0.00323435,0.0385895,0.00361042,-0.00222719,-0.00053823
-0.120923,-0.00315787,0.0493647,-0.00206798,-0.00449565,0.00952744
-0.0681942,-0.00852578,0.0745935,0.00264183,-0.0051133,0.00951773
-0.0393586,-0.0426174,0.112432,0.00138021,-0.00142881,-0.000318527
-0.121912,0.0160081,0.0386301,-0.00603974,-0.0231494,0.00323504
-0.369278,-0.0221215,0.0165967,-0.00355466,-0.0099473,0.00191659
-0.125,-0.0276339,0.027926,-0.00250128,0.0120412,0.00994349
-0.0210163,0.0233884,0.00656734,-0.00447217,-0.00397062,0.00575829
-0.0403161,-0.00533304,-0.00646955,0.00182267,-0.00668752,0.0111554
-0.0080063,-0.0128081,0.00675681,-0.000870451,-0.00491977,0.00766742
-0.0101653,-0.00429418,0.00564851,0.000445187,-0.00152963,0.00443542
0.00498023,0.00953506,0.00366733,0.000485778,-0.00966436,0.00650179
0.00609918,-0.00536956,0.00155097,-0.00204185,-0.00599515,0.0131361
0.0158254,-0.00111582,0.00166087,-0.00343026,0.00290364,0.0132661
0.019062,-0.00537542,0.00277365,-0.00210801,-0.00708592,0.0110407
0.00289043,-0.00643237,-0.00169844,0.00177673,-0.00597936,0.00776625
0.0200632,0.00845624,0.00919052,0.000480935,-0.00757337,0.00459898
0.0297946,-0.00325911,0.0103846,-0.000256315,-0.00143921,0.00468242
0.0440882,0.027607,-0.0151804,0.000157803,-0.00643009,0.000131369
0.0667394,0.00845277,-0.111272,-0.00199798,0.0220914,-0.0478653
1.08506,-0.131728,-0.169195,-0.0339844,0.190678,-0.0533758
0.98927,0.0364726,0.0811839,-0.0798419,-0.0175157,0.105365
0.880663,0.0440122,0.0221187,0.114061,0.0570806,-0.0317971
0.175302,-0.0320908,-0.044684,-0.0310124,-0.0765405,0.0231047
0.131736,0.0573219,0.0800048,0.00175544,-0.0275398,0.0165101
-0.603831,-0.0943894,0.220653,0.045911,-0.0132912,-0.0126791
-0.350299,-0.0860199,0.0693362,-0.018737,0.00538242,0.000940979
-0.270639,0.0192966,0.0936895,0.0291355,0.0760821,-0.0348604
0.240074,0.0477003,-0.0418818,-0.00182451,-0.00712955,-0.00854468
0.0709997,-0.043733,0.00340198,0.00176645,0.0150596,0.0108353
0.160616,0.0062241,0.011857,-0.00382762,-0.0127867,0.00339311
0.0667409,0.0137512,-0.00848495,-0.000446208,-0.00840023,0.00673461
-0.0447674,-0.00213876,0.00525554,-0.00204764,-0.0057877,0.00932556
-0.0231337,0.00103523,0.00442207,-0.000798307,-0.00425258,0.00500023
-0.0209672,-0.00428316,0.00445893,0.000251457,-0.00409693,0.00576705
-0.00690386,-0.0010962,0.00354909,-0.000810727,-0.00324482,0.00888479
0.009384,0.00953158,-0.00378053,-0.00158025,-0.00535995,0.00653398
0.190242,0.0317628,-0.0317293,0.00180341,0.0163669,0.014168
-0.0434096,0.0223543,-0.0236576,-0.00219465,-0.00227079,0.00483638
-0.127239,0.0596594,0.0267502,-0.0133715,-0.0264724,0.0351173
0.0269493,-0.067112,-0.0217001,0.0143337,-0.0398267,-0.0140333
-0.0987233,-0.0425411,-0.00173263,-0.00821134,-0.0118859,0.00640142
-0.300427,0.0246563,0.0462394,0.00218771,-0.0497753,-0.0166533
-0.158479,0.0447787,0.0167698,-0.0132396,0.0171449,0.019532
-0.150748,0.00539268,0.00512085,0.00314921,-0.00872466,0.00400984
-0.149618,0.00219586,0.000849247,-0.00466109,-0.00601104,0.00716078
-0.199369,0.0256557,-0.000802446,0.00469367,-0.014286,0.00259221
0.000726025,0.0159318,-0.00387595,-0.00113,0.000427395,0.00731337
-0.0933446,-0.025517,-0.000621741,0.00373405,-0.00491595,0.00152689
-0.0155527,-0.0223889,0.00560185,-0.000958607,-0.000698149,0.00953317
-0.0285537,-0.0202441,0.00760249,0.00142051,-0.00446182,0.00485075
0.17483,0.048798,-0.00729584,-0.00220147,-0.0419482,-0.0127529
-0.114022,-0.0244482,0.0119818,-0.00159606,0.000222445,0.00862724
0.0981326,0.0233074,-0.012424,-0.00217891,0.0168937,0.0161579
-0.00899877,-0.0106824,-0.00183011,-0.000478506,-0.0138454,0.00300002
-0.0155138,-0.00641625,0.000238389,-0.00041528,-0.00161397,0.00881672
-0.00684396,-0.00323178,-0.00181189,-0.000475377,0.000614494,0.00705767
-0.0155216,-0.0106704,0.00131832,0.000103429,-0.000746191,0.00749803
-0.0177157,-3.11146e-05,0.00341614,-0.0023793,-0.000215888,0.00880891
-0.0945305,0.00215225,0.00682503,-0.00233459,-0.00922185,0.00928271
-0.297025,0.00123522,0.0334478,0.00109489,-0.0140377,-0.00339764
0.0765059,-0.00861043,-0.00942409,-0.00103821,0.00786501,0.00646704
-0.020944,0.00742123,0.00122841,-0.00162898,-0.000609726,0.00840944
-0.173601,0.0192363,0.0176867,0.0012649,-0.0181856,-0.00207227
0.00611836,-0.00217564,-0.000593405,0.00316395,-0.000165284,0.00790787
-0.0555549,0.00744591,0.0019062,-0.00140664,-0.0139505,0.00504649
0.0364022,0.0105786,-0.00240123,-0.00271408,0.0116214,0.0147227
-0.0155477,0.00635158,0.00236015,-6.17653e-05,-0.00205275,0.00593328
-0.00362288,-0.00217363,0.000360682,-0.00045073,-0.00515753,0.00635666
0.00720965,-5.15394e-05,-0.00165934,-0.000165924,-0.0024271,0.00843102
-0.00579133,0.00315306,0.000334369,-8.3819e-05,-0.00545436,0.00935715
-0.00465605,-0.00642563,-0.00392459,0.00139233,-0.00376007,0.00759399
0.00831025,-0.00856626,-0.00270721,-0.000320494,-0.00498867,0.00785607
0.010468,-0.00430784,-0.00268424,-0.000514627,-0.00161451,0.0090037
0.000714484,-0.00430149,-8.42446e-05,-8.52495e-05,-0.00284106,0.00784546
-0.00362086,0.00634513,0.000301231,-0.00128041,-0.0106952,0.00603706
0.00503143,0.00314903,0.000576037,-0.00240554,-0.00854242,0.0127391
0.00935424,-0.00537231,0.00181939,-0.00279041,-0.00687432,0.00960445
-0.00254455,-4.21153e-05,0.00169624,-0.00191459,0.000643551,0.00902092
-0.00358819,-0.00429746,-0.00155093,-0.00064221,-0.00216809,0.00714922
-0.0047472,0.0063464,0.00479614,-0.00255656,-0.005418,0.00864428
-0.00362693,0.00102346,0.00160117,-0.000944465,-0.00357401,0.00764
-0.0661456,-0.00105953,-0.0173135,0.00322697,-0.0109162,0.00264239
0.0190486,0.00846078,0.00399645,-0.00224529,-0.00990307,0.0050602
0.0482815,-0.00859139,0.00220347,-0.00264125,-0.000134647,0.0123534
0.018017,-0.0170927,0.00185882,0.000968903,0.000647843,0.00949496
0.00930964,-0.00537399,0.00603693,-0.000302598,-0.00735849,0.00774151
-0.00795748,0.0169973,0.000469892,-0.00261267,-0.00185752,0.00953645
0.000715727,0.00634035,-0.000499854,-0.00391336,-0.000911415,0.00665373
-0.0111854,0.00209347,0.000443366,-0.000641584,-0.0079968,0.00654995
-0.00471385,0.00634812,0.00158554,-0.000102013,-0.00836471,0.0066427
0.00502469,0.00953736,0.000625527,-0.00322926,-0.00529474,0.00938731
0.0125898,0.00419934,0.00174219,-0.00449641,0.00125775,0.00877368
0.00720237,-0.00324828,0.000483444,-0.00352423,-0.00275111,0.00848049
0.00612503,-0.0075038,0.000380119,0.000464201,-0.00435656,0.00500047
-0.00687045,-3.49255e-05,0.00122166,-0.00100236,-0.00189665,0.00596976
-0.00147684,0.00208667,0.00232888,-0.0020501,-0.00280815,0.00501227
-0.00791828,0.002087,-0.00203402,-0.000295267,-0.00410366,0.00783092
0.00398059,-0.0032435,-0.00189316,-0.00181177,-0.000494301,0.00915134
-0.00361177,-0.00217305,0.000162378,-0.00183423,0.00192064,0.00892818
0.00828035,-0.00111523,0.000298804,-0.00188237,-0.003232,0.00950444
0.00718984,-0.0032427,0.00135164,-0.00107439,-0.00398335,0.00883782
0.00719932,-0.00217521,0.000266792,-0.00282861,3.41833e-05,0.00936002
0.00178156,-5.02281e-05,0.00125357,-0.000556663,-0.00100911,0.00887948
-0.00143391,-0.00643194,-0.000933011,-0.000380829,-0.0050931,0.00704187
-0.00468268,-0.0021683,-0.000988424,-0.000381127,-0.00420687,0.00504833
-0.0198461,0.00209745,0.000955319,0.000190303,-0.00607717,0.00271612
-0.00903528,0.00421624,0.00104937,-0.00222443,-0.00680822,0.00578219
0.00177616,0.00421255,0.00115455,-0.000931904,0.00476435,0.00879467
-0.0197247,-0.0181272,-0.00871543,-0.00271897,-0.0120674,0.00656748
-0.0133709,0.0127444,0.00097422,-0.00223117,-0.00764266,0.00419599
0.000803505,0.00740972,-0.00957296,-0.00491884,0.00720909,0.0104465
0.0267007,-0.00645157,-0.00284468,-0.00026463,-0.00244391,0.00514245
0.0137399,-0.0224013,-0.00296594,0.000928625,0.00111178,0.00880182
-0.0284907,0.00742889,-0.000268411,-0.00585923,-0.000382841,0.00941163
-0.0360958,0.0106252,0.00285207,-0.00340274,-0.00289899,0.00909716
-0.0025747,-0.0255915,0.00648061,0.000646725,0.00474486,0.00915933
-0.00574826,-0.00536616,-0.00214619,-0.00365673,-0.00995505,0.00813061
0.0316412,0.101048,0.0313687,-0.0063004,0.00305837,0.0231113
0.00725965,-0.0277268,-0.00304428,0.00573231,-0.0359834,-0.00169849
-0.0253128,-0.0149349,0.00834841,-0.00506145,-0.00455022,0.00770569
-0.0329316,0.00103929,0.0114616,-0.00444865,0.0121579,0.012861
0.0277912,-0.00538395,-0.0038994,-0.0025278,-0.00496557,0.00959772
-0.0481104,-0.0138521,0.0166595,0.000480741,-0.0036996,0.00836492
-0.0165948,-0.00429666,0.000939279,-0.00209527,-0.00750759,0.00519466
-0.000365552,-0.00430592,5.55716e-05,-0.00223503,-0.00952736,0.00169283
0.0115427,0.00313862,-0.00195636,-0.00150017,-0.006675,0.00287068
0.00836173,0.00740078,-0.00842053,-0.00147904,-0.00125784,0.0065648
0.0256006,0.00100084,-0.00179302,-0.00407006,0.000794947,0.00922585
0.0385891,-0.0117857,-0.00163752,-0.00383829,-0.0020121,0.00942791
0.0234502,-0.0107082,-0.00180775,-0.00146191,-0.00742978,0.00582558
-0.0036618,0.0137953,0.00321717,-0.00338186,-0.00482434,0.00834882
-0.026296,-0.00215359,-0.00237707,-7.54893e-05,-0.00211444,0.00792629
-0.0371565,0.0021072,0.00177345,-0.000785634,-0.00810322,0.00644487
0.00611616,0.00101346,0.000126092,-0.0034454,-0.00616726,0.00568151
-0.00577642,-0.0117495,0.00107744,-0.00202954,-0.000605971,0.00877714
-0.0144406,0.00209652,0.000967544,-0.00200623,-0.00519094,0.0062235
0.00719356,0.00420882,0.000138662,-0.0026774,-0.00417739,0.00820124
0.0093361,0.00313639,0.00229799,-0.0042699,-0.00440806,0.00977862
-0.000406635,0.00314485,0.003204,-0.00290811,-0.00688004,0.00903976
0.00611545,0.00207639,-3.86778e-06,-0.00302905,-0.00260407,0.0104683
-0.00361113,-0.00111596,-0.000183104,-0.00297867,-0.00199908,0.00757861
-0.00144204,-0.00856513,-0.000191902,-0.0012098,0.00218627,0.00779563
-0.00252683,-0.00324969,-0.000252001,-0.0020836,-0.00664303,0.00597805
0.0147724,-0.00431956,-6.87111e-05,-0.00244032,-0.000879496,0.00910807
-0.0220243,0.00953744,0.00161577,-0.00126487,-0.00045526,0.00888914
-0.00142805,0.00207022,-0.0024505,-0.00299101,-0.00611061,0.0077374
0.00611566,0.00313532,-0.00023841,-0.00315091,0.0003227,0.011005
0.00500484,-6.14543e-05,0.00292942,-0.0027239,-0.001746,0.00970668
0.0071484,0.00844902,0.00396847,-0.00333379,-0.00178623,0.00822955
0.0191618,-0.00965758,-0.0055304,-0.00362591,-0.00463748,0.0106145
-0.00793539,-5.59846e-05,-0.000489779,-0.000147209,0.00275522,0.00828779
-0.00470885,-0.00538063,0.00169426,-0.000836074,-0.00599399,0.00607055
0.00071207,0.00206809,-0.000391953,-0.00193867,-0.010406,0.00548011
0.00175614,0.00526173,0.00283122,-0.00391398,0.000697196,0.0100828
-0.012278,-0.00537319,0.00161085,-0.00321659,-0.00272462,0.01104
-0.0036003,0.00100555,-0.00151243,-0.00241183,-0.00741896,0.00752813
0.0104504,-0.00432927,-0.000279602,-0.00278069,-0.000303209,0.00939733
0.0137052,-0.00539065,-0.00130574,-0.00111924,-0.00126147,0.0106124
-0.00362927,0.00633288,0.000626757,-0.00386973,-0.00237373,0.00827086
0.00719182,-7.17379e-05,0.000732039,-0.00431034,-0.00347415,0.00772244
-0.0122533,0.00314487,-0.00162548,-0.00551675,-0.0100483,0.00458264
-0.0208943,0.00528107,-0.00278253,-0.00329678,-0.00831002,0.00432777
0.00282744,0.0148427,0.0028351,-0.00313053,0.000768006,0.00924993
0.195669,-0.0300003,-0.0270588,-0.00416319,0.00134337,0.00890708
-0.0468913,0.00742934,0.00120961,-0.00244056,0.000400275,0.0077365
-0.0328756,0.0265739,0.00348463,-0.00712228,-0.0113212,0.00703371
0.000665056,0.00419657,0.00388832,-0.00245067,0.00397557,0.00943387
0.0115671,-0.00751683,-0.00346924,-0.00364214,-0.00756934,0.00422013
0.0180144,-0.00113502,-0.000189579,-0.0028476,-0.0024963,0.00602323
-0.00467874,0.00740201,-0.00259147,-0.00295551,-0.00541285,0.00768042
-0.019843,0.00102407,0.000453238,-0.00351991,-0.001719,0.00961465
0.0169564,-0.0128443,-0.00126226,-0.00159149,-0.00627255,0.0107679
0.0147791,0.0020592,-0.00130246,-0.00237127,-0.000634193,0.00472224
0.00608267,0.00313206,0.00288474,-0.00277364,-0.00114334,0.00958693
-0.0111958,0.00314937,0.000552626,-0.00428441,-0.00199604,0.00938964
-0.0252187,0.00316179,-0.00281684,-0.00212061,-0.0058715,0.00752109
-0.0382382,0.0148769,0.000232692,-0.000958845,-0.00564471,0.00855333
-0.00900843,0.0020777,-0.0015708,-0.00285731,-0.00296336,0.0107162
-0.0219376,-0.010683,-0.00491367,-0.00102116,-0.000647694,0.00900394
-0.0413689,0.00422939,-0.00943849,-0.00321892,-0.00740814,0.00533342
-0.0456858,0.00636608,-0.0105547,-0.00205748,-0.000946164,0.00774384
0.0212964,-0.00539632,-0.00336268,-0.00137782,-0.00215951,0.0069108
-0.000330789,-0.00219063,-0.00361558,-0.00194298,-0.00597313,0.00708914
0.0158771,-0.00432444,-0.00234972,-0.000799343,-0.000589013,0.00832981
-0.00470775,0.00526184,0.000609157,-0.00403036,-0.00329828,0.00761139
0.000654581,0.00313338,0.00496193,-0.00396882,-0.00313616,0.00651395
0.00608707,-6.65551e-05,0.0028813,-0.00152379,-0.0016368,0.00513518
0.025543,-0.00540076,0.00418124,-0.00341329,-0.00489402,0.00682211
-0.0133382,0.00740076,-0.00162825,-0.00215259,-0.00367802,0.00697654
-0.00357459,-0.00324778,-0.00364501,-0.000148013,-0.0021781,0.00828874
0.0147866,-0.0160394,-0.000216885,-0.0029268,-0.0019289,0.0100155
-0.0154973,-0.00749858,-0.000564906,-0.0015751,-0.010741,0.00529826
0.00289192,-0.00325926,-0.00143814,-0.00263497,-0.00780874,0.00477713
0.00071697,-0.00325239,-0.000385019,-0.00166464,-0.00526464,0.00630516
-0.00144459,-0.00431465,-0.000407673,-0.000447944,-0.00682223,0.00552166
-0.00583402,0.00420294,0.00488776,-0.00278352,-0.00824106,0.0054934
0.00933837,0.0020667,0.00185353,-0.00503245,-0.00506532,0.00801718
0.005076,-0.00537665,-0.00353667,-0.00209932,-0.00729284,0.00786215
-0.00577908,0.00420858,-0.00045973,-0.00260764,-0.00835699,0.00928557
0.00937093,0.00313166,-0.0013597,-0.000978574,-1.23084e-05,0.00869399
0.0180473,0.0105758,-0.00448288,-0.00674061,-0.00675911,0.00313431
0.0504595,-0.0203187,0.00126888,-0.00165418,0.00165385,0.00985187
-0.0512295,0.020208,0.00115017,-0.00402567,-0.0085521,0.00709081
0.0115142,-0.0107109,0.00188769,0.00112447,-0.00180599,0.00778431
-0.0166051,0.0180534,-0.000597646,-0.00547677,-0.00861964,0.00712109
-0.0446859,-0.024505,0.000196651,-0.00444917,0.00709569,0.0142135
-0.033938,0.0170034,0.00242231,-0.00284097,-0.00286877,0.0102826
-0.0177416,0.0276373,0.00366796,-0.00513554,-0.00795901,0.00634688
0.0439566,-0.018176,0.00227555,-0.00126842,-0.00069651,0.00689805
0.061266,-0.0150016,0.00138957,-0.00152944,0.00511086,0.00749916
-0.0133532,-0.00217013,0.000535015,-0.00408669,-0.00776634,0.0081346
0.00287999,0.00633107,-0.00143484,-0.00197843,-0.0134637,0.00437003
0.0364199,-0.00327638,-0.00211959,-0.00304686,-0.00500959,0.00677818
-0.0209396,0.00528216,0.00150693,-0.0014333,-0.000450402,0.00792044
-0.0199369,-0.038368,0.0133351,0.00123774,0.00615609,0.00575316
-0.00374585,-0.00217686,0.0124261,-0.00351804,-0.019588,0.0108909
-0.132285,0.0277162,-0.00406352,-0.000590146,0.000208139,0.00760895
-0.0466797,-0.0149159,-0.016963,-0.00117724,-0.000194788,0.00578767
-0.0758568,0.0127853,-0.0216007,-0.00246817,-0.0177975,-0.000363111
-0.112894,0.00854516,0.00474831,-0.0109683,-0.00123918,0.0152338
-0.0866092,-0.0127571,-0.0249145,-0.00118713,-0.0039649,0.00362194
-0.0661496,-0.0415115,-0.013942,-0.00313458,0.0293449,0.0237144
-0.0999784,-0.0212725,0.0134887,0.00152104,-0.0285495,-0.00284982
0.017008,0.0127097,-0.00877572,-0.00689542,-0.00429836,0.0113514
-0.125026,0.0681591,0.0216826,-0.00338326,-0.000326663,0.0129277
0.024552,-0.0181683,-0.00330807,-0.00538646,0.00966477,0.00388235
0.0201147,-0.00645839,0.00626653,-0.00193816,-0.0048748,0.00728929
0.113323,-0.0161007,-0.0130096,-0.00849326,0.00126049,0.0125225
0.0937547,0.0243559,-0.00685448,-0.001142,-0.00236231,0.00718486
0.628928,0.0144028,-0.099291,-0.00804825,0.0370671,0.0302485
0.423212,-0.0301582,-0.0705236,-0.00047861,-0.00866187,-0.0191754
0.191147,0.0658054,-0.0175645,-0.00901849,-0.0642812,-0.0427097
0.147335,-0.0054722,-0.0608214,0.031124,0.205684,0.0561848
0.440261,0.0517922,-0.0543464,-0.0373435,-0.00598603,0.0274705
-0.0124629,0.0670106,0.0122471,0.0209307,0.0221321,-0.0500535
0.0557582,-0.00222892,0.00987674,0.000755407,0.0346156,-0.0036571
-0.365867,0.0459596,0.0982047,-0.0113216,-0.0656352,0.0125214
0.00058019,0.0659381,0.00597163,-0.00651464,-0.050145,0.00461715
-0.455215,0.066257,0.0575512,-0.00101031,-0.00420693,0.00673687
-0.278619,0.0139773,0.030697,0.00240304,0.00169408,-2.94447e-05
-0.0415735,0.0287127,0.00767271,-0.00333209,0.0130006,0.0159723
0.00511996,-0.0469013,-0.00350841,0.00256339,0.00139663,0.0146556
-0.022079,-0.00429576,0.00793171,-0.00455411,-0.0241777,-0.00176996
-0.151916,-0.00420816,0.0150186,-0.000864267,-0.00877142,0.00783736
-0.00687762,0.00953482,0.000597581,-0.00352903,0.00597453,0.0143691
-0.0338615,-0.0266358,-0.000741882,-0.00131847,0.000107437,0.00652689
-0.0100549,-0.0255795,-0.00260329,-0.00194389,0.00283957,0.0104624
-0.00795155,-3.47411e-05,0.000607417,-0.00210205,-0.00856131,0.00295949
0.0158326,0.00208122,0.000880658,-0.00466663,-0.00586921,0.00474757
0.00832637,-0.00535912,-0.00454552,-0.00358795,0.000449061,0.000360191
-0.0243869,-0.0319515,0.0240227,-0.0027574,-0.00182462,0.00474262
0.00184324,-0.0340865,-0.00243775,-0.00175102,0.00188339,0.00672853
-0.0231293,0.0138318,0.0025859,-0.00144911,-0.00950995,0.00194609
-0.00579645,0.00105548,0.000665615,-0.00255303,-0.00301093,0.00502694
0.0299285,-0.00961352,-0.00212967,-0.00125225,-0.00412574,0.00715607
0.00828851,0.0053059,-0.00238843,-0.00485186,0.00191176,0.00496513
0.00288507,0.00105849,-0.00243722,-0.00226553,0.00306454,0.0041396
0.00286852,-0.00638624,-0.000279594,-0.00150439,-0.00453964,0.00250393
0.00174428,0.00213348,0.00291648,-0.00133079,-0.00772464,0.00234783
0.0136497,0.00106265,0.00198445,-0.00515862,-0.00634184,0.00248814
0.00826636,0.00106502,-0.000220719,-0.00445694,0.00117594,0.00630879
-0.000391651,-0.00212194,0.000755453,-0.00262198,-0.00257817,0.00396651
-0.00254657,-0.00104455,-0.000326643,-0.00193913,0.000231653,0.00248587
-0.00364468,0.0053397,0.000721401,-0.00305369,-0.00578076,0.00163186
0.00177851,0.0106589,-0.00136346,-0.00347875,-0.00561306,0.00248075
0.0169438,0.00426542,-0.00332167,-0.00426444,-0.00206393,0.00330025
0.0039166,-0.00104158,0.00189859,-0.00295614,-1.51396e-05,0.00484914
-0.00686768,0.00322999,-0.00143322,-0.00173807,-0.000850111,0.00128585
-0.00903893,0.00216101,-0.000371671,-0.00070098,-0.0082117,-0.00168616
0.00175912,0.0042863,0.000842401,-0.00129524,-0.00775176,-0.00120753
0.012602,-0.00529489,-0.00114976,-0.0015242,-0.00714219,0.00103825
-0.000394492,-0.00528922,0.000847443,-0.00360781,-0.00528052,0.00166392
0.000706992,-0.00422041,-0.00127764,-0.00231212,-0.000376463,0.00169867
-0.0025737,-0.00208435,0.00190972,-0.00290081,-0.00397909,0.00130755
-0.0220556,0.00644457,0.00274731,-0.00245373,-0.00526199,0.000460029
0.0103916,-0.00316082,0.00312285,-0.000985891,-0.00331283,0.000280082
0.0764863,-0.019173,-0.00788961,-0.00179926,0.006742,0.00528508
0.0353087,0.00321323,-0.00194927,-0.00295769,-0.0210981,-0.00256348
0.00389789,0.00323015,0.00304217,-0.00346836,0.000491798,0.00689131
-0.0263616,-0.00206462,0.00164014,-0.00172846,-0.00586662,0.00154722
0.00822534,-0.00102322,0.0031052,-0.00116013,0.00486836,0.00260943
0.0784528,-0.0149145,0.0103393,-0.00263126,0.00179899,0.00362158
0.175859,0.00204955,0.000721208,-0.00645147,-0.0117973,-0.000433624
-0.0296969,0.0096521,0.00909479,-0.00328949,-0.00393641,0.00172573
-0.0252894,-0.00525417,0.00273243,-0.000714958,-0.00154516,0.00136375
0.0397168,-0.00316783,-0.00937903,-0.00260305,-0.00156263,0.00222468
0.163142,-5.59846e-05,-0.0240375,-0.00297827,-0.00679448,0.00222415
-0.0448077,0.016053,0.00570785,-0.00393945,-0.00177395,0.00244081
-0.00360694,-0.00845576,-0.00236412,-0.00132604,-0.0012925,0.00168276
0.0082431,5.71376e-05,0.000982482,-0.00175126,-0.00255468,-0.00148058
-0.0079116,0.014971,-0.00671345,-0.00528963,0.00615254,-0.0105125
-0.0803947,-0.000944354,-0.00216608,-0.0057648,-0.0112562,-0.00080651
-0.00582922,0.00644791,0.00187961,-0.00156739,-0.00090614,0.00157577
0.0190036,0.00855797,0.00537141,-0.00109382,-0.00239688,0.00478315
0.0309117,-0.0084709,0.00553766,-0.00286435,0.00203544,0.00223947
-0.00906713,6.59674e-05,0.00185238,-0.0015872,-0.00535321,-0.000541449
-0.0177225,0.00433544,0.00175675,-0.00195031,-0.00395876,0.00193024
-0.0469315,0.00861431,0.00249193,-0.00350592,-0.00564629,0.000466406
-0.0166366,0.00966246,0.000699725,-0.00432274,-0.00266939,0.00192732
0.0213333,-0.0382655,-0.00631888,-0.000925303,0.00345179,0.00213337
-0.00691508,0.00858839,0.0018789,-0.00280912,-0.00476664,0.00026685
0.00387676,0.00645247,0.00414667,-0.000663534,-0.00497019,-0.000985384
0.0222925,0.00643508,0.0011373,-0.00308995,-0.000798106,0.00203967
-0.00576811,-0.00205204,-0.00344646,-0.00513986,0.00544977,0.00467193
-0.0252502,-0.00522944,-0.00151986,-0.00300309,-0.00692835,-0.00081104
-0.00795126,-0.00311821,-0.00133223,-0.000348851,-0.000787377,-0.00170857
0.0158309,-0.009521,1.66069e-05,-0.000626251,-0.000786424,0.000908971
-0.00151962,0.00646257,0.00302225,-0.00338267,-0.000214487,0.0011192
0.00925109,-0.00738634,0.0085096,-0.00374362,0.00313461,0.00180072
0.00713931,-0.0137686,0.00421148,-0.000850558,-0.00775024,-0.00254858
-0.00256923,0.00965204,-0.000212,-0.00262535,-0.0055218,-0.000510216
0.0180055,-0.0105865,-0.00102803,-0.00107476,0.00793353,0.00266927
-0.0382498,0.00755685,-0.000604762,-0.00251025,-0.00907332,-0.00427186
0.0277152,-0.0233647,0.00231108,-0.00494482,0.0033738,-3.9041e-05
0.00388777,-0.00631343,0.00416922,-0.00335899,-0.00460839,0.000690699
-0.000442286,0.0107181,0.00302829,-0.00349271,-0.00062418,8.41022e-05
-0.00582152,0.00646323,0.00082816,-0.00421998,-0.00323969,0.000711918
0.00393691,-0.0105708,-0.000109663,-0.00254388,0.00176343,0.0025546
-0.00796096,-0.00736435,-0.000242147,-0.00177115,-0.00410712,0.000518382
-0.00471957,-0.00311719,-0.000220202,-0.00223078,-0.00112167,0.00179064
0.00175702,0.00540388,-0.000142331,-0.00275847,0.000280172,0.00154173
-0.0014588,0.00114342,-0.00238047,-0.00168262,0.00372195,0.000669122
0.0190928,-0.00738502,-0.00219138,-0.00318564,0.00372943,0.000379205
-0.00582084,-0.00736648,0.00179256,-0.00265549,-0.00301629,-0.000640273
-0.0242391,0.00754816,0.00368442,-0.00232974,-0.00702858,-0.000909686
-0.00907388,0.00221487,0.00171968,-0.00415573,-0.00479203,-0.000240564
0.00066502,0.00646243,0.000750788,-0.00474812,-0.00722396,0.00317687
0.0158154,-0.00844267,0.000948146,-0.00276349,0.00033927,0.00311428
-0.00150929,0.00540667,0.00180732,-0.00276385,-0.000175744,0.00310206
-0.01124,0.00435185,0.00170125,-0.00376225,-0.000687093,0.00139076
-0.062031,0.0128958,-0.00212091,-0.0033153,-0.00601795,0.0015527
-0.0771751,0.0065279,-0.00124707,-0.00358485,-0.00754166,-0.00188917
0.0028121,0.0203056,0.000672024,-0.00417367,-0.00314772,0.00147212
-0.0490743,0.0522769,-0.00426327,-0.00370558,-0.00790811,-0.00164878
0.000638318,-0.0148138,0.0049442,-0.00213319,0.0128232,0.00292456
0.0234085,-0.0329307,0.000930567,-0.00331369,-0.0076986,-0.00104713
-0.00471769,0.00328247,-0.00156535,-0.00561291,-0.010086,-0.000967979
-0.0566926,-0.0115808,0.00643017,0.000372991,0.0129994,0.00411177
-0.0642861,-0.00732613,0.00847079,0.000344619,-0.0123257,-0.00280052
-0.111857,0.0331635,0.00361361,-0.00486456,-0.00279534,0.00353366
-0.12792,0.0225355,-0.0104756,-0.00146063,0.00293106,-0.000389636
0.036289,-0.00632744,0.007478,-5.44339e-05,0.00697643,0.00441539
0.0060277,0.00115286,0.00499416,-0.00366676,-0.00739419,-0.000917435
-0.00906645,0.00329128,0.000534644,-0.00390099,-0.00468019,0.0016861
-0.0025736,8.35657e-05,0.000599235,-0.00365576,0.00175321,0.00346786
-0.0122732,-0.0105472,-0.00163374,-0.00252411,-0.00303084,0.000577211
-0.00901195,-0.0169358,-0.00266079,-0.000527844,0.00305676,0.00120068
-0.00686938,-0.00842106,-0.00157305,-0.000402436,-0.00756434,-0.00151277
0.0094227,-0.0137581,-0.00781298,-0.00377668,0.004033,0.00588691
-0.0241685,0.00435513,-0.00286571,-0.00354841,0.00529355,0.00288677
-0.0122317,-0.00735245,-0.00591891,-0.00187233,0.00188434,0.00193405
0.00823348,-0.00630903,0.00180185,-0.00266305,-0.00517839,0.00297034
-0.0210243,0.0235205,0.00465772,0.000185609,-0.00809884,0.00146687
0.0429189,-0.0265505,-0.00420006,-0.00544365,0.00359786,2.87294e-05
-0.026374,0.00116872,0.00140355,-0.00237171,-0.00297582,0.000216126
-0.00580085,0.00435142,-0.00157398,-0.00487453,0.00138223,0.00353694
-0.0209047,-0.00734383,-0.00387221,-0.0013638,0.000354409,0.000866294
0.00500082,0.00328147,-0.000376298,-0.00158703,-0.00379705,0.000223815
0.00609943,-0.00204508,-0.001434,-0.00186184,-0.00229853,-0.000270844
-0.0166148,0.00648589,-0.00170174,-5.14984e-05,-0.00556225,-0.00380218
0.0190348,0.00326963,0.00192297,-0.00241549,0.00590363,0.00535548
0.00394955,-0.00416907,-0.00252305,-0.00318033,0.00552577,0.00195873
-0.0079714,-0.0211946,0.00163925,-0.000796154,-0.000598758,0.00305861
0.00067404,-0.00523501,0.000649125,0.000129387,-0.0086816,-0.00153333
-0.00472852,0.00328067,-0.000496709,-0.00457336,-0.000204384,0.000162661
-0.0144127,-0.0126673,-0.0037887,-0.000754774,0.00617421,-0.00245571
0.00178689,-0.0148139,-0.00146827,-0.000761688,-0.00359166,-0.00200731
0.015793,-0.0105629,0.00297495,-0.0016658,-0.00530678,-0.000729263
-0.0101619,0.00648429,0.00158862,-0.00173606,-0.00437519,-0.00199825
-0.00582539,-0.00734682,0.00166436,-0.00363664,0.00111255,0.00220573
-0.026308,-0.0105317,-0.00392832,-0.00254625,-0.00423118,-0.0100208
0.0200441,-0.0137669,0.0105143,-0.00439663,-0.00602186,0.00266564
-0.0231552,0.0128841,0.0025105,-0.0021648,0.00324845,0.00398636
0.0396309,-0.00419698,-0.00212074,-0.00248075,0.00804657,0.00275511
-0.00252101,0.0011592,-0.00474228,-0.00527243,-0.00997642,0.00237858
-0.0350509,0.0139613,0.00237975,-0.00272429,-0.000333905,0.00143456
0.0483295,-0.0201656,-0.00521345,-0.00119592,0.0070599,0.00321823
0.0115306,-0.00735888,-0.00349337,-0.00318544,-0.00319251,0.00237465
-0.0458954,0.0246095,0.0043827,-0.00249675,0.00219184,-0.00120622
0.00497806,-0.0073646,0.00284535,-0.000300631,0.00396755,0.000512958
-0.0014381,-0.0126756,-0.00364013,-0.00345889,-0.00973803,-0.00139797
-0.0415775,0.00970137,0.00658545,-0.00385295,-0.00823385,-0.00334436
0.00819399,0.00754263,0.00394715,-0.00160049,0.00165835,0.00342554
0.0645101,-0.0159196,-0.00182101,-0.0022738,0.00690576,0.00461167
0.0158038,8.5962e-05,0.000827806,-0.00405262,-0.00599006,-0.00337797
0.0309656,-0.0116405,-6.7763e-05,0.000405982,0.00570017,0.0048008
-0.0425431,0.00544912,-0.00412571,-0.00377318,-0.00671265,0.00234222
-0.0447776,0.00970974,0.00227259,-0.000946939,0.00340405,0.00457984
-0.0208907,0.000111958,-0.00601577,-0.00144683,-0.00165671,-0.00384158
-0.0122236,0.0150156,-0.00913586,-0.000564128,-0.00988862,-0.00012213
-0.0273487,0.0160817,-0.0103915,-0.0012978,0.0158955,0.00816995
-0.000362178,-0.00735409,-0.0036332,-0.00141671,0.0060606,0.00370991
0.0104035,-0.00523452,0.000769145,-0.00349276,-0.00280815,0.00214601
0.0104144,-0.00417348,-0.000307198,-0.000958785,-0.000493586,0.00459927
-0.000364344,-0.0169321,-0.0025499,0.000988185,0.00201944,0.0100489
0.00395278,0.00222475,-0.00359144,0.0022476,-0.00312829,-0.000813484
0.021257,-0.0137531,-0.00230613,-0.00011979,0.00613889,0.00155687
-0.00255339,-0.0116136,-0.000444795,-0.000466913,0.00398889,-5.57899e-05
0.000656321,9.22708e-05,0.00172103,-0.00198336,-0.00392896,0.000346899
0.0202048,-0.00949275,-0.00553324,-0.000821665,-0.00042969,0.000941038
0.0577806,-0.00847032,0.0205789,0.00568561,-0.0341551,0.0562831
-0.0296533,0.0224737,0.00243327,-0.00959824,-0.011529,-0.000106633
0.0103933,0.0160551,-0.000322751,-0.00372405,0.000263542,0.00452769
-0.0101055,0.00436406,-0.00375283,-0.00310966,0.00491381,0.010103
-0.0610743,0.0320729,0.00741785,0.00049895,0.00573882,0.00480729
-0.0760924,-0.0211326,0.000882312,0.00362176,0.00712124,-0.0184071
-0.0578113,-0.00944445,0.00963694,0.00123103,-0.000702918,-0.00830948
0.0319708,-0.00418522,0.00636878,-0.00358738,0.00176162,0.00200814
0.0115663,0.00221991,-0.00778844,-0.00682411,0.000567049,0.00821471
0.0526793,-0.0222984,-0.00730506,-0.00177537,0.000490308,0.00440329
0.0548432,-0.0244261,-0.00727492,0.00269946,0.000619054,-0.00030899
0.0299192,-0.012704,-0.0032915,0.00168027,0.00331455,0.000783086
0.0212435,-0.0212111,-0.000165305,0.000794828,0.00283611,-0.000489116
0.0277413,-0.0212119,-0.00115771,-0.00291198,-0.00661349,-0.00126982
0.0018062,-0.0137403,-0.00359958,-0.00133677,-0.000926107,0.00232184
0.00938261,-0.00949118,-0.00459297,-0.00237468,-0.00636744,0.00288606
-0.0890932,0.0395464,-0.00254461,-0.000108063,-0.00338405,0.000857472
-0.0447197,0.00864262,-0.00308438,-0.000683606,0.00484291,0.00361979
-0.0242465,0.0118198,0.00356951,-0.00153907,-0.00491524,0.00287819
0.000649432,0.00648121,0.00171737,-0.00319648,0.000799179,0.00131804
0.0103951,0.00222042,0.000766374,-0.00254378,0.00308976,0.00466174
0.00714073,0.00116055,0.0018044,4.02927e-05,0.00145763,1.24574e-05
0.00714921,0.00435206,0.000727884,0.0016418,0.000640273,0.00160593
-0.00690205,0.00116167,0.000562448,-0.0018093,-0.00148824,0.00145537
0.00823742,-0.00203799,0.000687188,-0.00211784,-0.00269303,0.00132734
-0.00152786,0.00861793,0.00271332,-0.00346301,-0.00113997,0.000136614
-0.00579616,-0.00308785,-0.0016075,-0.000409737,0.00271404,-0.00276291
-0.00469298,-0.00202642,-0.00374101,-0.00198713,-0.00134003,0.00101465
-0.0275018,0.0224709,0.00347097,-0.00401872,-0.00650981,-0.00041616
-0.0230855,-0.0126596,-0.00179939,0.00233354,0.00648445,0.00355172
-0.0134321,-0.00308355,0.00473068,-0.00107282,-0.00939891,-0.0025714
-0.00370004,0.0064931,0.00376506,-0.00230101,-0.00222158,0.00268668
-0.012286,0.010754,-0.002767,-0.00231792,0.000348568,0.00252783
0.0136758,-0.00203504,-0.00245552,-0.00157967,0.00110239,0.00269496
-0.000419419,0.00435734,0.000585526,-0.0010298,-0.000849515,0.000991881
-0.00580749,-0.00202765,-0.00054305,0.00119276,-0.00121284,0.000351429
-0.0209583,0.000112511,0.000354293,0.000769943,-0.00189677,-0.00196576
-0.00259931,-0.000962381,0.00270949,-0.000887066,-0.0027355,5.54323e-06
0.00501549,-0.0020326,-0.00148762,-0.000676692,0.000344515,0.00130272
0.00174513,0.00116727,0.000619473,-0.00123219,-2.78652e-05,-0.000376105
0.0277524,-0.0116241,-0.0033557,-0.00134753,-0.00254855,0.00104386
-0.00148621,0.00116471,-0.000494509,-0.00123073,0.00041765,0.00206178
-0.0112272,-0.000954228,0.000471863,-0.000239193,0.00259686,0.00149566
-0.0198809,0.00330818,0.000367254,-0.0019529,-0.00105441,0.00161272
0.010432,-0.000972788,-0.0024992,-0.00186296,-8.81255e-05,0.00209075
0.00718231,-0.00629237,-0.00145925,-0.00221223,-0.00138319,0.0023796
-0.0242406,0.00331549,0.00353627,0.000169709,-0.00256711,0.000619054
-0.00582102,0.000101941,0.000526582,-0.000151932,-0.00288448,0.000968337
0.0104034,-0.00629407,0.000720247,-0.000210419,0.00419194,0.00135058
-0.00254782,-0.00734965,-0.00156844,0.000257477,-0.00067991,0.00010711
-0.0253042,0.0086367,0.00137439,-0.000610009,-0.00226066,0.000505447
-0.0080035,0.00756037,0.00157264,-0.00130594,-0.00115499,0.00201583
-0.00587105,-0.00522418,0.0058518,-0.00355399,0.00196087,0.00449097
0.0339705,0.0234901,0.019105,-0.00649327,0.00705758,-0.00660926
0.0534836,0.0181514,0.0150446,-0.00415462,-0.0139191,0.00289261
-0.0804201,-0.0519997,0.00396324,0.004453,-0.0122649,-0.0152591
0.207449,-0.194822,-0.107202,0.0102502,0.0979429,0.00431556
0.41402,-0.129002,-0.0128459,-0.0423879,-0.197302,0.0253775
-0.179839,-0.192492,0.218188,0.0163929,-0.0640518,-0.0294836
-0.636839,0.0303055,0.259901,-0.00740685,0.0561655,0.0385348
-0.166262,0.327012,0.00689896,0.00120601,-0.0578652,-0.0333843
-0.605184,0.0739922,0.0203823,0.00950906,-0.0724553,-0.013883
-1.0714,-0.111932,-0.051106,-0.00207448,-0.0392395,-0.0232454
-0.48633,0.00367185,-0.0670719,0.00561127,0.0299774,0.0130847
-0.217505,0.00664965,-0.0254924,-0.00740132,0.0102116,0.00900728
0.0694531,0.0202668,0.0387847,-0.00369808,0.00480974,0.0141286
-0.153199,-0.0189507,0.0320208,0.000168219,-0.0120834,-0.00178534
0.0527157,0.0245244,0.0878438,-0.00602008,-0.0410394,-0.0185447
0.325217,-0.00335523,0.0909559,-0.00767642,0.0409387,0.0277604
0.253147,0.0382195,0.0504782,0.00532334,0.00494397,-0.00315458
0.0526537,-0.0212252,-0.00526597,0.00537859,0.00488108,-0.000340521
0.107929,-0.0297782,-0.0164084,-0.00160354,0.0263164,0.0268061
0.00301688,-0.0222447,-0.0154563,-0.000580177,-0.0276488,-0.00550419
0.0513656,0.0170954,0.0107462,-0.000815034,-0.0146563,0.00222826
-0.0512922,0.00226678,0.00531104,-0.00173792,0.011672,0.00470066
0.0166217,0.0266992,0.0231932,-0.000125274,0.000288665,0.00293183
0.0103229,0.00754023,0.00707068,-0.00427072,0.0203531,0.00748223
-0.143106,-0.0232093,-0.00212628,0.0038469,-0.00586963,-0.00213194
-0.0870826,0.0108074,0.0145347,0.00336598,0.00504857,0.0044924
-0.000380217,-0.0137325,-0.00158704,-0.00327964,-0.00290936,0.00412709
0.0233027,0.0011503,0.00723228,-0.00518969,0.00507897,0.00610793
-0.0167258,0.0235343,0.00675743,-0.000633672,6.59823e-05,0.0028193
0.0212121,-0.00204635,0.000779232,0.00155094,0.00667697,0.00939751
-0.0415661,0.0171685,0.00434361,-0.00471157,-0.00518203,0.00507498
-0.0274533,0.00650901,0.000224122,0.000499681,-0.00292414,-0.000311494
0.0460204,-0.00951482,0.00749551,-0.00352247,0.00279075,0.00693315
-0.21674,-0.0476409,0.00991228,0.00233826,-0.0178842,-0.0170128
0.0114627,-0.0073571,0.00282173,0.00695507,0.00811285,-0.000356078
0.00292619,-0.0211818,-0.00689188,0.00457221,0.0025934,-0.00905454
-0.0338203,-0.0126469,-0.00946904,0.0057296,0.00657755,0.00624543
0.031984,0.00327395,0.00411678,-0.000310138,0.0102232,0.00163698
0.0265439,0.0139261,0.00619113,-0.0063988,0.00992072,0.0105792
0.0287769,0.00114453,0.000865695,-0.00489789,0.0162386,0.0124602
0.00585801,0.0235115,0.0187873,-0.00466669,4.27961e-05,0.00349391
0.0146462,0.00860427,0.00712214,-0.00325626,0.00475663,0.00733256
0.0136203,0.00860886,0.00176006,-0.00338118,0.00430745,0.00428724
0.00381227,0.0192551,0.00805761,-0.00304633,0.00253087,0.00198323
-0.00366894,-0.00202302,0.0015747,0.0003203,-0.000397384,-0.00815392
0.003896,0.00116725,0.00166038,-0.000645429,-0.00101864,-0.00290024
0.0104122,-0.00522381,-0.000400905,0.00122094,-0.000335038,-0.000748694
0.0028873,-0.0137405,-0.00369928,-0.00194074,-0.00416881,6.27041e-05
0.0060907,0.003292,-0.00153332,-2.72393e-05,-0.00226831,0.00292003
-0.010144,0.0086242,-0.000654153,-0.00329235,-0.00312567,0.00208551
-0.011197,0.012888,-0.00387697,-0.0026646,0.00479639,0.0065062
-0.00151682,0.00755896,0.00159391,-0.000113323,-0.00403053,-0.00033617
-0.014424,-0.00308,-0.00390204,0.00133346,-0.00118989,0.000221968
-0.0166375,0.00224716,0.000355965,-0.000801906,-0.00694615,0.000815392
-0.00364941,0.00116938,-0.00057163,-0.00216466,-0.00413555,0.000288606
-0.000401842,-0.00308904,-0.000528275,8.31634e-05,-0.00330877,0.000686646
-0.00585333,0.00968313,0.0026036,-0.000525191,-0.00557983,0.00179791
-0.00369326,0.0107518,0.00263446,-0.001228,-8.24332e-05,0.0035429
-0.00364333,0.00649105,-0.00164872,-0.00302608,-0.00310814,0.00155669
0.000668856,-0.00309287,0.000551051,0.000161171,-0.00497061,0.00273263
0.00392491,-0.00415977,-0.000482112,-0.000154406,-8.59499e-05,0.00127769
-0.00147396,-0.00095935,-0.00161364,0.00120158,-0.000374615,0.00293279
-0.00366152,0.00223296,0.000497114,-0.00174513,-0.00140154,0.0043084
-0.00470672,-0.00201562,-0.00271288,-0.00113595,-0.00510198,0.0025298
0.00174264,0.00329773,0.000631992,-0.000975072,-0.000154853,0.00219035
-0.000455105,0.00648548,0.00386002,-0.00184289,0.000227809,0.0015924
-0.000393923,0.00116479,-0.00148936,-0.00136048,-0.000705063,0.00213337
0.00284288,-0.00415559,-0.000377586,-0.00133477,-0.00164139,0.00314325
-0.00257949,0.00010907,0.000628028,0.0011262,-0.00191087,0.00384974
0.00715646,-0.00309828,0.000741089,-0.000737667,-0.00324261,0.00246704
0.00174428,0.00223081,0.000681083,-0.00160989,0.000551283,0.00235122
-0.000404114,-0.000959493,-0.000411914,-0.000368223,-0.00102413,0.00278163
0.00503065,-0.00734883,-0.00248894,0.000667781,-0.000800788,0.00249982
-0.021,0.0182134,0.00254086,-0.00220567,0.000702441,0.00115407
0.041731,-0.0116394,0.00434736,0.00585905,-0.000957191,0.00260729
0.00509801,-0.0179955,-0.00783849,-0.00283015,-0.00979948,-0.000712872
-0.0296429,0.0118299,0.00244245,0.00897598,-0.000211239,-0.00165349
0.037527,-0.031859,-0.00531711,0.00186566,-0.00141358,0.00319076
-0.0145394,0.0224666,0.00474917,0.00305672,-0.000905693,-5.04851e-05
0.00288961,-0.00628284,-0.00465942,-0.0127737,-0.00263023,0.00553679
-0.0187262,-0.0147847,-0.00489864,0.00810313,0.0012846,0.00287533
-0.00157136,0.0181989,0.00597103,-0.00214452,-0.000437915,0.00348043
0.00181181,-0.0201237,-0.00359153,3.23355e-05,-0.00245106,5.16176e-05
-0.00798702,0.0139455,-0.000524098,-0.00101486,-0.0029453,2.563e-06
-0.00581232,0.00223267,-0.000490614,-0.000811428,-0.00518119,0.00269705
0.00715561,-0.00203473,0.000731636,0.00111365,0.000445843,0.00109214
-0.0090166,-0.00414877,-0.00373001,-0.000918329,-0.00475574,0.000676751
-0.00583732,0.00330337,0.0016581,-0.000868589,-0.00404757,0.000865281
0.00175901,-0.00202371,-0.000391614,0.00147444,-0.00249249,-0.00096041
0.00283685,0.00222966,-0.000388312,-0.0014655,-0.00163227,0.00182223
-0.00366343,0.00436097,0.000603911,-0.00216272,0.00094378,0.00152308
0.00285116,-0.00096316,-0.00145532,-0.000747353,-0.000987887,0.00254929
-0.00148301,-0.00202869,-0.000431321,-0.00111231,-0.00143194,0.00208056
-0.011199,-0.00733803,-0.00160668,-0.00229758,-0.00222099,0.00226891
-0.000445269,0.00755144,0.00277934,0.00108099,0.00346297,0.0037843
0.0288333,-0.0116234,-0.00328723,0.00100753,0.00198585,-0.0106636
-0.0134612,0.0245987,0.00476507,0.00103202,-0.00780177,0.000543237
0.00285456,-0.00415748,-0.0014526,0.00279254,-0.0039289,-0.00218618
-0.00261166,0.0107495,0.00275555,0.000788778,-0.000398219,-0.000983834
0.00392587,0.00542345,-0.00144798,-0.00165671,-0.00312877,0.0035997
-0.00902672,-0.00627336,-0.00265074,0.00032267,-0.00398576,0.00374854
-0.00258897,0.000101428,0.00169093,-0.00235304,-0.00525272,0.0014118
0.00177354,-0.00627731,-0.00145217,-0.0030764,-0.0037148,0.00138801
-0.0014468,-0.0169261,-0.00255745,-0.000542521,-0.00376153,0.00220579
-0.0167169,0.0267239,0.00578935,-0.00134566,-0.00882685,0.00061506
0.0494195,-0.0318629,-0.00517541,0.00191405,0.000469267,0.00412202
-0.0080073,0.0203437,0.000555638,-0.0105676,-0.00768834,0.000174463
-0.0176542,-0.00520689,-0.00489724,0.00522059,0.00063014,0.00487888
0.00722275,-0.0158601,-0.00459232,0.00263119,-0.00357574,0.00139493
-0.00802558,0.00649875,0.00377345,-0.000386775,0.00328916,0.00391185
0.019099,-0.0190702,-0.00232256,-0.0026792,-0.000778437,0.00453502
-0.0166232,0.00970171,-0.00167836,0.00085476,-0.0025661,-9.35197e-05
-0.0112615,0.0107556,0.00265716,-0.00610682,0.00233096,0.00637037
-0.00255833,0.00223454,-0.00151868,0.00226822,0.00444067,0.00489324
-0.00689537,-0.00840592,0.000586106,-0.00248969,0.00449729,0.00480187
-0.00254309,-0.00308199,-0.00257691,-5.6982e-05,-0.00123209,0.00200415
0.0136278,9.77414e-05,0.00188523,-0.000467867,-0.00082016,0.00185603
0.0114757,0.00116284,0.000787511,-0.00178587,-0.00112277,0.00199711
0.00174371,0.00223327,0.000674629,0.00119594,-0.00251687,0.00112653
-0.000392787,-0.000959841,-0.0014902,-0.00376791,-0.000877202,0.00125456
-0.00144676,-0.00627899,-0.00363596,-0.000605285,0.00226462,0.00306386
-0.00146363,0.000104461,-0.00258003,0.000449926,0.000481725,0.00174713
-0.00147879,0.00330097,-0.00151545,-0.00200188,2.0802e-05,0.00465369
-0.00580284,0.00330017,-0.00156362,-0.00122693,0.000746191,0.00642431
-0.000404682,-0.000957035,-0.000397353,-0.00191572,-0.00122327,0.00197875
-0.00580049,-0.000949394,-0.00149538,-0.000593394,-0.00326151,0.000948548
-0.00367561,0.00436501,0.00175413,-0.000772715,-4.82798e-05,0.0022555
0.0147305,0.00222118,-0.000170063,0.00230238,0.00363451,0.00206912
0.228828,0.01271,0.000104949,-0.00732143,0.0246146,0.0176098
0.32661,-0.0767676,-0.0351027,0.000213131,-0.00483984,0.00902098
0.37056,0.0690258,-0.012264,-0.00800556,-0.00128818,0.0119556
0.0906849,0.0468846,-0.0293294,0.00106139,-0.025287,-0.00392389
-0.0187585,-0.00626371,-0.00267656,0.000684276,-0.00681901,0.00386536
-0.0641379,-0.0168734,-0.00532044,0.00269887,-0.00196326,0.000631809
-0.104218,0.024664,-0.00261052,-0.00293873,-0.00409263,-0.00303578
-0.0566021,-0.00411573,-0.00311879,-0.000700608,0.00152296,0.00514126
-0.0221276,0.0192798,0.00689175,-0.000386477,-0.00120783,0.000383377
-0.0144551,-0.00627082,-0.000490677,0.001762,-0.00267529,0.000367761
-0.00364181,-0.00734235,-0.000365934,0.000737801,0.00421655,0.00260276
-0.0133433,-0.0041382,-0.00368764,-0.000336885,-0.00159132,-0.00136524
-0.0058142,0.012888,-0.00147658,0.000521526,-0.00056684,0.00337243
-0.0156104,0.0118246,0.00483192,0.000253767,-0.00169271,0.00303853
-0.0133452,-0.0115977,-0.00261975,-0.000992626,0.00242913,0.00157952
-0.0111938,-0.0243667,-0.00043269,-0.000239983,-0.00275314,0.00339633
-0.00474336,-0.00947071,0.00176552,-0.0012545,0.00150895,0.00198418
-0.0166538,0.0182157,0.000534037,-0.00322899,0.00109249,0.0020923
-0.0252679,-0.00414158,-0.000625078,-0.000391513,0.000428438,0.00328195
0.000697688,-0.0115991,-0.00137818,0.00110702,-0.00570858,-0.00193799
0.014721,9.35206e-05,0.000903506,-0.000235394,-0.00150591,0.00218391
0.000638993,0.0139454,0.00180568,-7.9304e-05,0.00292075,0.00676978
-0.00147041,-0.00521414,-0.00141337,-0.00282633,0.00248826,0.00385034
-0.00579517,-0.00521186,-0.00146355,-0.00135313,-0.00305992,0.00163543
-0.000418211,0.00117255,0.00073523,-0.00114417,-0.00417519,0.00152206
0.022264,-0.00842552,0.00421346,0.000959054,0.00293481,-0.00595343
0.0698295,-0.0212363,0.00690449,-0.00152504,0.00846034,0.00767738
0.103304,-0.0457393,0.0137401,-0.00115736,-0.00054276,0.00282294
0.0287598,-0.00523819,0.00321122,-0.00392379,-0.00905704,-0.00179923
0.0969148,-0.0191279,0.00185333,0.00178513,0.0100601,0.000590086
1.37175,0.0716424,-0.618722,0.0349229,0.252235,-0.111721
-1.64124,-0.201902,-0.357067,-0.0232229,-0.0656861,0.111039
0.916312,0.324125,-0.108046,0.0255449,-0.015019,0.0757262
1.09265,0.239846,0.099609,0.0260822,-0.0400055,-0.0697061
-0.163898,-0.0551293,0.0246368,-0.0129603,-0.0227754,-0.0191668
0.296495,0.0488466,0.0404586,0.0213173,0.0768058,-0.0141063
0.440224,-0.00552337,-0.0488694,-0.00739429,-0.0084064,0.00531089
-0.0781514,-0.0040859,-0.0108427,0.00152685,-0.00872704,-0.0139399
-0.15622,-0.090287,0.121123,0.018183,0.0719184,0.00981534
0.148462,-0.0585571,0.0399561,-0.0110912,0.000404835,0.00610381
-0.111444,0.073645,-0.0402152,-0.00888468,-0.00787482,-0.000175238
-0.0682823,-0.0189927,-0.022494,-0.000195734,0.0099901,0.00402927
-0.133997,0.098153,-0.0576209,-0.00280093,0.00846776,-0.00518245
-0.159145,-0.0466097,-0.01708,0.0132098,0.0267694,0.0100521
0.0321257,-0.015881,-0.00744533,-0.00340727,-0.0394823,-0.019592
0.00836646,0.00116721,-0.0120166,-0.00285738,0.0288768,0.0089429
0.032195,0.0277598,-0.0182012,0.000326201,-0.00171062,-0.000186086
-0.0922001,0.0118874,-0.013165,4.24162e-05,-0.00745213,8.22544e-05
-0.462614,0.0706908,0.0371845,-0.0079902,-0.0223039,0.00153053
-0.646576,0.086791,0.0479338,-0.00105244,-0.00827211,-0.00647676
0.0407153,0.0213711,-0.00523991,0.00144005,0.0336391,0.0137247
-0.0112192,-0.0105273,0.000626004,0.00141655,-0.00482848,-0.000798643
0.00284104,-0.00308775,-0.000294738,-0.00088115,-0.00167125,0.00483835
-0.32531,0.0620743,0.0408916,-0.00839898,-0.0218134,-0.00882924
-0.470088,0.0536702,0.029626,-0.000112906,0.00140464,0.00565422
0.0720781,0.00431252,-0.0038017,-0.00102751,0.0243543,0.01268
-0.0414779,-0.0147653,-0.000786855,-0.00401235,-0.00393403,0.0021944
-0.0101243,-0.000951422,-0.00151759,-0.00138856,-0.00487041,-0.00564247
0.0580495,-0.0127052,-0.00501059,0.00168888,0.0122246,0.00913614
0.00836472,-0.0307669,-0.00877208,-0.00129555,-0.000641763,0.00385141
-0.0123367,0.00437113,0.00273455,-0.00455679,-0.00467801,0.00559783
-0.0166201,0.00650863,-0.00159347,-0.00273874,0.00032115,0.00440723
-0.00146711,0.00223923,-0.00248908,-0.00121102,-0.0029965,0.00421369
-0.00260974,0.00650178,0.002854,-0.00171427,0.00418866,0.00630832
-0.0794893,0.0182606,0.011602,-0.000334084,-0.00286043,0.00228
-0.0566378,-0.00410731,0.000104699,0.00221929,0.00155658,0.00549328
0.043958,7.88523e-05,-0.00304067,-0.00162387,0.00603992,0.00488609
-0.0339363,0.0118425,-0.000725389,-0.00359096,0.00194025,0.0022738
-0.0987423,0.0214728,-0.00896375,0.00171112,-0.00656331,-0.00398862
-0.0176348,-0.00307374,-0.00695456,-0.00216596,0.00898921,0.0104893
-0.0198359,0.00224785,-0.00377457,-0.00156252,-0.00244689,0.0065701
-0.0339404,-0.0041348,0.00141927,3.20375e-06,-0.00221324,0.00235093
-0.0176856,-0.00945633,-0.00158818,0.000474066,0.00445163,-0.00289387
-0.0447962,-0.00837314,0.0055994,-0.00477648,0.00546592,0.00636333
-0.0209224,-0.00519611,-0.00270018,0.00128116,0.00187421,-8.21352e-05
0.0082655,0.00116604,-0.00237971,-0.00254378,0.0108952,0.00413615
0.0103865,0.00861705,0.000851841,-0.00297612,0.00246149,0.00647819
0.00181721,-0.00521178,-0.0056543,-0.00201927,-0.00162482,0.00290215
0.00502039,-0.00841294,-0.00133746,-0.000841692,0.000927389,0.00117236
-0.0155763,0.0107634,0.00162434,-0.00167847,-0.00266147,5.68628e-05
-0.00695272,0.0160729,0.00385077,-0.000591248,0.00301307,0.00398338
0.0136453,-0.00522893,0.000895411,0.000522748,0.0029251,0.00365096
-0.0145106,0.00331353,0.00378874,-0.00660774,3.21865e-05,0.003474
-0.0382837,0.00119814,0.0024453,-0.000590518,-0.00516939,0.000816226
-0.0144806,0.00756912,0.0005688,-0.00275332,-0.0128327,-0.000766873
-0.215269,-0.0806273,-0.0241038,0.00227508,0.0188754,0.00612044
-0.0327346,-0.007319,-0.0103328,0.00143668,0.0015471,-0.00066036
0.366354,-0.028897,-0.0143507,0.00386696,0.0233258,0.0189711
1.28091,-0.0784959,-0.189181,-0.000589967,-0.0308603,0.0209645
-0.0641056,-0.0605158,-0.00420501,-0.00535809,-0.00495115,0.0120564
-0.150956,0.0566304,0.0171759,-0.00736229,0.000358462,0.00270331
-0.0578072,0.0288875,0.00540847,0.00286575,0.0167434,0.0117977
-0.0739625,-0.0243189,0.00421325,-0.0018051,0.0049873,0.00287694
-0.0392351,-0.0509552,-0.00500537,0.00117525,-0.00810933,-0.00406909
0.0244858,-0.000972726,-0.00219109,-0.00343642,0.00651163,0.00627136
0.0126005,0.00222788,-0.00340197,-0.000523463,-0.000907898,0.00127685
0.00501968,-0.00840987,-0.00133355,-0.00130038,0.00538194,0.00686705
-0.00905008,-0.00626959,-0.000422784,-0.00331964,3.58224e-05,0.00308788
0.000646023,0.00649596,0.00181548,0.000154495,0.000768363,0.00256634
0.00391809,0.00116901,-0.00028714,-0.00176159,0.00505397,0.00225002
-0.000407949,0.00117681,-0.000330283,-0.00110297,0.00324175,0.00377262
0.000693108,0.00436718,-0.00246593,-0.0040708,-0.000527173,0.00207645
0.0115078,-0.00841743,-0.00124097,-0.0034676,0.00223076,0.00318676
0.00815394,0.0235165,0.00618851,-0.00101021,0.00366688,0.00329316
-0.0241401,-0.00838873,-0.00485022,0.00442454,0.00520161,0.00259179
0.0115865,-0.0435385,-0.0054767,-0.000162125,0.0163935,0.00586158
-0.0144612,-0.0115925,0.000613842,-0.00423935,0.00413013,0.00227833
-0.146538,-0.00298456,0.0140971,-0.00143704,-0.0108582,-0.00648165
0.0331702,-0.0126892,-0.00419707,3.60906e-05,0.00287205,0.000919461
0.0427872,0.0564937,0.000127478,-0.0107284,-0.00834104,0.0038811
0.0785529,0.0617893,-0.00804143,-0.00675601,0.0112635,0.00888872
-0.00168865,0.0341662,0.0157033,-0.00816849,-0.000345767,0.00229055
0.000798676,-0.0658941,-0.00558933,-0.00384879,-0.00352764,0.00562966
-0.332563,0.0258957,0.0141059,0.00305478,0.00307173,-0.0206553
-0.0806069,0.0438065,0.0126598,0.000411645,-0.0047276,-0.00596368
-0.161622,-0.0104276,0.00964558,0.00670637,0.00584003,-0.00274241
-0.236356,-0.00611443,0.0205764,-0.00122203,0.00814062,-0.0131899
0.0147409,0.00222452,-0.00121042,-0.00227204,0.00565422,0.00700611
-0.0122457,-0.00946014,-0.00471205,0.00116746,0.0123614,0.00777841
-0.0362738,0.0299376,0.0142493,-0.00601675,0.0053845,0.00183749
-0.0393742,-0.0115764,0.00461288,-0.00490066,-0.0104362,0.00499785
-0.0274212,-0.0137183,-0.000610218,0.00158237,-0.0190347,-0.0053882
0.0363658,0.0128559,-0.00204353,0.000493407,0.00244111,0.00261122
0.0190419,0.0149946,-0.000103613,-0.00214122,0.0179754,0.0108587
0.00290034,-0.0169278,-0.00453973,-0.00264375,0.00863433,0.005063
-0.00799526,-0.00201398,0.00175265,7.33286e-05,-0.000509381,0.000140429
-0.0166613,0.0150199,0.00163252,-0.000573769,-0.00452948,0.000972569
-0.0892693,0.0459379,0.0136256,-0.00280802,0.00529122,0.00646096
-0.0382241,-0.00305563,-0.00287245,-0.00316265,-0.000271082,0.00138384
-0.0122925,0.00437435,-0.00151764,-0.00445409,-0.00225228,0.0017457
0.0245125,-0.0158777,-0.00322285,-0.000954643,-0.00098002,0.00159293
0.0417881,-0.00311567,-0.00196708,-0.000983432,0.00209701,0.00261235
0.0168799,0.00222731,0.00096151,-0.00154771,0.00900495,0.0061903
-0.00148056,0.00436851,-0.00139241,-0.00221556,0.000577211,0.00325406
-0.0675458,-0.0200702,0.0107299,0.00128701,-0.0176853,0.00132775
0.141298,0.00638901,-0.00513589,-0.00308512,0.0108046,0.0119703
0.115374,0.00215393,-0.00756291,-0.0025287,0.0190716,0.0121431
0.0114684,0.00967303,0.000880691,-0.00210151,-0.000260532,0.00846618
-0.0698692,0.0629557,0.0181138,-0.00883013,-0.00744104,0.00126499
-0.0285404,0.00118722,0.00150731,0.00259905,-0.00387865,-0.00352108
-0.00910353,0.0150128,0.0027873,-0.00346863,-0.0033294,8.98838e-05
0.0147715,-0.00628913,-0.00334113,-0.000485674,0.00517619,0.00414085
-0.0210167,0.0118292,0.00479888,-0.00485033,0.00359905,0.00660163
-0.0252479,-0.0041306,-0.00272555,4.82649e-05,0.0131465,0.00414455
0.048329,7.11922e-05,-0.00725363,-0.00381438,0.00322872,0.00864333
0.0256206,-0.0211967,-0.00534177,-0.0011113,0.0084722,0.00520283
-0.00582528,0.00224009,0.000699171,-0.000311553,0.00165719,0.00213689
0.023411,-0.0180061,-0.0010914,-0.00111765,-0.00325406,0.00222862
0.0277429,-0.00416395,-0.00318883,-0.00371954,-0.00548226,0.000221074
0.0017066,0.00436755,0.00400082,-0.00186485,0.00116324,0.00289345
-0.000421549,0.00436656,0.000760245,-0.00195089,0.00407898,0.0055815
-0.00583512,0.000114272,0.00177619,-0.000980914,0.00583524,0.00305092
-0.00580071,-0.000948471,-0.00143335,-0.00184357,0.00692034,0.00333118
0.00608256,9.89502e-05,-0.000239221,-0.00234509,-0.00268614,0.00170594
0.00713661,0.00435794,0.00191307,-0.00373554,-0.00734288,0.0031054
0.0158345,-0.00948816,-0.00118997,-0.000101745,-0.00105667,0.0015713
-0.0351026,0.029937,0.00569444,-0.00412688,0.00798571,0.00568992
0.0126237,-0.0105421,-0.00442805,-0.00266241,0.00582099,0.00581813
-0.0112361,0.00544363,0.000642533,-0.00153027,0.00401151,0.00413638
0.00174641,0.000101879,0.000782368,-0.00182615,0.0057919,0.00476021
0.00824377,0.00116274,-0.000214614,-0.00303985,0.00189471,0.00303626
-0.00258112,0.00117599,0.000740502,-0.0025731,0.000485122,0.00385892
-0.00150723,-0.00202123,0.00182302,-0.00152327,-0.00156766,0.00115591
-0.00259124,0.000111262,0.00181216,-0.00154607,0.000671148,0.00152642
0.00283741,0.000107492,-0.000396421,-0.00257538,0.00351351,0.000501454
-0.00472873,-0.00201769,-0.000550772,-0.00115493,-0.000118732,-0.000582993
-0.00366045,-0.000951217,0.000504192,-0.00158665,0.000327945,-0.000136733
0.00824697,-0.00203066,-0.000462547,-0.00239804,0.00336289,0.00186956
0.00285407,-0.00415533,-0.00158291,-0.00106482,0.000777781,0.00256044
-0.000407381,0.00223421,-0.000519483,-0.000490531,0.00282729,0.00212508
0.00071033,-0.000957957,-0.0036676,-0.000385121,0.00176197,0.00353229
-0.00148351,-0.0030864,-0.000432224,-0.00221834,0.00173807,0.00397098
0.00175965,-0.00308633,-0.000339166,-0.00160332,0.00185478,0.00307339
-0.00148962,0.00223931,-0.000330566,-0.00120729,0.00323331,0.00353026
0.00391745,0.00223163,-0.000237694,-0.00201786,0.0022741,0.00350296
0.00285393,-0.00415471,-0.00129233,-0.00279184,4.40478e-05,0.00114822
-0.0047298,-0.000953224,-0.000294263,-0.00185043,-0.00219619,0.00373745
-0.00256724,0.000104726,-0.000272342,-0.0013902,-0.000303626,0.00175136
0.00714907,0.00329282,0.000903736,-0.00143628,0.00214559,0.00470018
0.00284718,0.00329347,-0.00129154,-0.00183238,0.00220716,0.00422949
0.00498857,0.000106242,0.00088402,-0.00171599,0.00140744,0.00140095
-0.00582145,-0.000956072,0.000754126,-0.000930429,-0.00247836,0.000923693
0.00390797,0.000104276,0.000874142,-0.00154638,-0.00109404,0.000652909
0.00174584,0.00116419,0.000853674,-0.00158845,0.00242919,0.00414681
-0.00582123,-0.00201685,0.000792366,-0.00158276,-9.83477e-06,0.00169325
0.000660546,0.00330222,0.000866948,0.000132546,0.00175929,0.00212914
0.00934717,0.000103539,-0.00224001,-0.00224808,0.00104517,0.00566483
0.00292906,-0.0137265,-0.00764389,0.000259936,-0.00169134,0.00360584
0.00817393,0.0139399,0.00523363,0.00023064,0.0089916,0.00434005
0.0277438,-0.0158749,-0.00200665,-0.00271316,0.000453711,0.000979304
0.000630435,0.011814,0.00300492,-0.00566,-0.00138837,0.00104433
0.0115299,-0.00735581,-0.00328085,-0.00179785,0.00185949,0.00179523
-0.0112498,0.00863368,0.00180785,-0.00331628,0.00206673,0.00355542
-0.00475735,0.00436796,0.00188171,-0.00168534,0.000557125,0.00133741
0.00283756,0.00116673,-0.000174039,-0.00283888,0.00105596,0.00279933
0.00498971,-0.00095853,0.000930213,-0.00181136,0.000130653,0.00284231
0.00609261,-0.000955723,-0.00119481,-0.00282638,0.00123614,0.00339198
-0.00365473,0.00437199,-0.000248773,-0.00176497,-0.000224829,0.00291765
0.00824661,-0.00202912,-0.000139571,-0.00265166,0.00178337,0.00392187
0.000684053,0.00223798,-0.00130776,-0.000125766,0.00160915,0.00364327
0.000674643,0.00011032,-0.000238665,-0.00197467,0.000728726,0.00121015
-0.00474404,0.00117943,0.000768618,-0.00249758,0.00014317,0.0016427
0.00282602,0.000108147,0.000855271,-0.000304192,0.00427598,0.00253719
0.000673862,0.00117356,-0.000242669,-0.000747323,0.00431854,0.00352067
0.00391038,-0.00202588,0.000859697,-0.00120838,0.00189614,0.00351536
0.000666654,-0.00202349,0.000817843,-0.00162876,0.00246596,0.00453579
0.00174882,-0.00414799,0.00083306,-0.00216459,0.00225323,0.0048871
0.00610671,-0.00202791,-0.00234637,-0.00204162,0.00199413,0.00208747
0.00175873,-0.00202248,-0.000254552,-0.00236849,0.00366098,0.00218344
-0.00584272,0.00756615,0.00179525,-0.00153369,0.00340092,0.00450748
-0.00146682,0.002238,-0.00244188,-0.000776142,0.00305343,0.00189018
0.00607188,-0.00202318,0.000857677,-0.00117268,0.00178802,0.00198722
0.000687462,-0.000956338,-0.0013533,-0.00162154,0.00134683,0.0034771
-0.00255662,-0.000952405,-0.00139111,-0.00216502,0.00262207,0.00237793
0.00285123,-0.00202332,-0.0013361,-0.00162402,0.00503427,0.00481343
0.00283749,0.000107185,-0.000272505,-0.000599384,0.00089246,0.00203073
0.00716566,-0.00308941,-0.000224693,-0.00210969,0.000928879,0.0020386
-0.000395557,0.00117186,-0.00139323,-0.00214644,0.000297725,0.00439644
0.000663742,0.00116868,0.000751539,-0.00073573,0.00210965,0.00239527
-0.000406032,0.00010866,-0.000333964,-0.00310422,0.00257367,0.00184518
-0.00255463,-0.00308072,-0.00142941,-0.00152604,0.00323164,-0.00292504
0.00281469,0.00222821,0.00182491,-0.00200403,-0.00349599,0.00101709
-0.0231504,0.0150314,0.00153122,-0.00534692,-0.00708586,0.00398362
0.00497576,0.00223276,0.00185602,-0.000292584,0.000216067,-0.00332987
0.048315,-0.0201517,-0.00405552,-0.00623727,-0.000517726,0.00582981
-0.0254663,0.0458974,0.0132486,-0.00591931,0.00480008,0.00459725
0.0277937,-0.0201357,-0.00642907,0.000531659,0.00999558,0.00416845
-0.0102551,0.0288527,0.00807986,0.000472233,0.00811547,0.00611866
-0.0241837,0.00225267,-0.00168964,-0.0039416,-0.00928146,-0.00055784
-0.00690368,-0.000950971,0.000654652,-0.00256981,-0.00705117,-0.0014205
0.0136268,0.00116159,0.0019547,-0.00338838,-0.00101197,0.00210267
-0.000403475,-0.00308197,-0.000337179,-0.00242944,-0.00242805,-0.00122982
-0.000393142,-0.00201816,-0.00141001,-0.000707209,0.00225186,0.00430059
0.00717656,-0.00308791,-0.0013228,-0.000668854,0.00299251,0.00298297
0.0136595,0.00116608,-0.00124015,-0.00145003,0.0021556,0.00184762
-0.0144672,0.00544014,-0.000481914,-0.000287533,-0.00187671,-0.000647187
0.0158245,-0.000965986,-0.00119063,-0.00264233,-0.00355285,0.00288117
0.00719342,-0.00841151,-0.00233799,-0.00135534,-0.00378382,0.0026058
-0.00797601,0.00117964,-0.000369069,-0.00261657,0.00181508,0.00195146
-0.00365466,0.00437168,-0.000293456,-0.00166371,0.00296283,-0.000656962
-0.00580007,0.00116847,-0.0014002,-0.0017539,-0.00120991,0.00160682
-0.00580014,-0.00095093,-0.00138596,-0.00142823,-0.00114727,0.000413656
-0.00367235,0.000111446,0.00184964,-0.00154871,-0.000320137,0.00179577
0.000656143,0.0075607,0.000818263,-0.00267254,0.00145113,0.00315928
0.00824512,-0.000962812,-0.000189077,-0.00359447,0.00408602,0.00640011
-0.0068692,-0.000954167,-0.00253598,-0.00248775,0.00414407,0.00252551
-0.00583561,0.00117628,0.00173752,-0.00103401,-0.00180447,0.000528395
-0.000409015,0.00224128,-0.000358333,-0.00215586,0.00115663,0.000260949
-0.00905726,0.00118044,-0.000471402,-0.00334017,0.00292969,0.00280583
-0.00363353,-0.00414992,-0.00149648,-0.00146644,0.00246483,0.00138915
-0.00363858,0.000111323,-0.00151284,-0.000544861,-0.000410914,0.00239903
-0.00150393,0.00543213,0.00062988,0.00035429,-0.000758111,0.00123793
0.00715813,0.00436216,-0.000362325,-0.00302407,-0.00107849,0.00344193
-0.0317789,0.00545512,0.000249924,-0.00310373,-0.0030396,0.002666
-0.0177424,0.0139599,0.00144976,-0.00193734,-0.0151353,-0.00956941
0.000670524,0.00542742,-0.00048866,-0.00167973,-0.00100225,0.00139761
0.0158302,-0.0169372,-0.000294392,-0.000954032,0.00330377,0.00164872
-0.0101476,-0.00094796,0.000470503,-0.00313669,-0.00467974,-0.000430346
-0.0101428,0.00543941,-0.000606088,-0.00356941,-0.00258946,0.000555277
0.00175376,0.00223845,-0.000466574,-0.00202194,0.00209564,0.00218713
0.0104152,0.0022311,-0.00143686,-0.00160901,0.00180656,0.00327498
0.0104255,-0.00735247,-0.00141148,-0.00111663,-0.000642836,0.00187576
-0.00798812,0.00224322,0.000536084,-0.002157,-0.000608146,0.00184894
-0.0036776,0.00543347,0.00165521,-0.00196308,0.000624835,0.00343716
0.0104231,-0.005222,-0.00138822,-0.00219333,0.000454485,0.00262344
0.00605977,-0.000959595,0.00177302,-0.00108625,0.00230652,0.00354958
-0.00689513,0.00118038,-0.000516122,-0.00252947,0.000828862,0.00273407
-0.00254668,-0.011594,-0.00152219,-0.00208502,0.000116348,0.00456953
-0.00147272,-0.0147915,-0.000440062,0.000755072,-0.00188208,0.0180652
-0.0405413,0.0288758,0.00870783,0.000375226,-0.00505674,-0.00412524
0.0125448,0.000105915,0.00185288,-0.00388932,0.00339353,-0.00166541
0.0201645,-0.00522493,-0.00234348,-0.00483388,0.00171065,0.00284982
-0.0134055,0.00224665,0.00154737,-0.00144039,-0.0048694,0.000309646
-0.00799874,0.0022405,0.00160589,-0.000554934,-0.00701672,0.00189447
0.0179792,-0.00522203,-0.000224452,-0.000999764,-0.00518036,0.00139272
-0.0047315,0.000114006,-0.000490946,-0.00261949,0.00621378,0.000997424
-0.00474489,0.00224298,0.000577905,-0.00253853,0.00656044,0.00161588
0.00393027,0.000105116,-0.00146705,-0.00226705,0.00154507,0.00154597
0.00608828,0.00330245,-0.00143871,-0.00126843,-0.00121731,0.00213891
0.00930751,0.00542845,0.000737657,-0.0031193,-0.00297505,0.00417209
-0.000369919,-0.00308117,-0.00364737,-0.0041073,-0.00091815,0.0049606
-0.0307456,0.00864696,0.00456106,-0.00176504,0.00354254,0.00276053
0.0223626,-0.0180017,-0.00444774,-0.00149262,0.00372595,0.00462794
-0.0286761,0.0341919,0.0109847,-0.00378549,-0.00270516,0.00107145
0.0114996,-0.0116105,-0.000297395,0.00114156,-0.000133574,2.69413e-05
-0.0231793,0.0224781,0.00356043,-0.00494923,-0.00578356,0.0014286
0.00507585,-0.0201167,-0.00571103,0.00144216,-0.00254798,-0.00240862
-0.00152985,0.00862653,0.00275143,0.00125831,-0.00726175,-0.00402153
0.0027736,0.00861912,0.00493692,-0.00366454,-0.000780523,0.00206089
0.00827247,-0.00522321,-0.00248484,-0.00330353,0.00431663,0.00438249
-0.00147147,-0.00414967,-0.00152284,-1.92076e-05,0.00104451,0.00351542
0.00174328,0.00223511,0.000649874,-0.00282753,-0.00184298,0.00101972
-0.000396551,0.00223601,-0.00150864,-0.000832573,-0.00283098,-0.00139797
0.00501407,-0.00308631,-0.00141098,-0.00198677,0.000419378,0.000227869
-0.00689299,0.000111302,-0.000459542,-0.00152259,0.000208497,0.00236046
-0.00365069,-0.000944804,-0.000391617,-0.00169329,0.00150526,0.00178862
-0.00148806,0.00117269,-0.000375911,-0.000370368,-0.00108814,0.00171041
-0.00256916,0.00117288,-0.000388067,0.000440881,-0.000818253,0.00161809
-0.000402126,-0.00308781,-0.000369224,-0.000524879,0.001243,0.000203013
-0.00148777,0.00011161,-0.000390226,-0.00326002,-0.000103295,0.00166857
-0.00150087,0.00329921,0.000659069,-0.00233917,0.000539482,0.00276822
-0.0470147,0.0256887,0.00761959,-0.00781851,-0.00933152,-0.00163972
0.019049,-0.00416201,0.000904125,0.0022094,-0.000612736,-0.00343049
0.0266603,-0.0137448,-0.00220957,-0.0027768,-0.00413144,0.00358284
-0.0275466,0.0192906,0.00785039,-0.000149101,-0.00115246,0.00121021
0.00611275,-0.00841317,-0.00245508,-0.000421375,4.6134e-05,0.00223726
-0.000443138,0.00330279,0.00281695,-0.00234492,-0.00111282,0.00383157
0.00174733,-0.000961971,0.000697108,-2.74479e-05,-0.000713587,0.00160652
-0.0111651,-0.00839832,-0.00479032,-0.00313459,-0.00465071,0.0017702
0.0136769,-0.00415967,-0.00237202,0.00310361,0.00395322,0.0040139
0.0146889,0.00861424,0.00298352,-0.00406896,-0.00276852,0.000537574
-0.00368985,0.00649767,0.00277583,-0.00386907,0.000893354,0.00335586
-0.00148955,0.002239,-0.00040718,-0.00311853,0.00231397,0.00336939
-0.0511782,-0.0126263,-0.00416796,-0.000114828,0.0156878,-0.0277585
0.00715206,-0.000959514,0.000766563,-0.000275448,0.00470918,0.00535774
-0.00471627,-0.00414267,-0.00150501,0.000817493,0.00511551,-0.000550747
-0.0047189,-0.000951729,-0.00151639,-0.000406921,-0.00439477,-0.00143898
-0.00689498,0.00117976,-0.000486135,-0.00217803,-0.00320554,-0.00185359
-0.00258198,0.00223954,0.000629977,-0.00284326,-0.003636,0.00356996
-0.00367519,0.00224345,0.00168968,-0.00226077,0.00120318,0.00379741
-0.0328771,0.000132752,0.00242426,-0.000476256,-0.00590503,-7.28369e-05
0.0124801,0.0118011,0.007201,-0.00373641,0.00444663,0.00305712
0.0245251,-0.018003,-0.00440232,0.000391275,0.00731665,0.0026955
-0.0393869,0.0118439,0.00340589,-0.00148846,-0.00118196,0.00084424
0.00719662,-0.0116049,-0.00246471,0.000852093,0.00109553,0.00104642
0.0126031,-0.000962751,-0.00348314,-0.00308801,-0.00132406,0.00637311
-0.00476243,-0.00201787,0.00274312,0.00279139,0.00441742,0.00225759
-0.00583203,0.00862842,0.000579421,-0.0011718,-0.00184458,0.000747204
-0.0102408,0.0139527,0.00802001,-0.00131626,-0.0046733,-0.00111967
0.023466,-0.0169409,-0.00656151,-0.004227,0.00257802,0.0054298
-0.000350567,-0.0115951,-0.00468696,-0.00107436,0.00370497,0.00447434
-0.00362668,-0.000951339,-0.0025967,-0.000820696,-0.00319546,0.000284195
0.00610671,-0.00414762,-0.00247778,-0.000920013,-0.00472063,-0.000957072
0.0169189,-0.00203498,-0.00236795,-0.000117838,0.00144136,0.00167906
-0.0171394,-0.174443,-0.0379157,0.0211827,0.0247775,0.0159289
-0.113045,0.0555392,0.0110939,0.00997095,-0.0168254,-0.0127526
-0.00787907,-0.0286238,-0.00690115,-0.00614278,-0.0108411,0.000141025
0.00290708,-0.0233161,-0.0046506,0.00435171,-0.0152999,-0.00868404
-0.0545491,0.0139848,0.00537499,-0.000854954,0.00151849,0.00461698
-0.0111614,-0.012654,-0.00481153,-0.00379123,0.0144282,0.0106267
-0.0113012,0.00437357,0.00694676,-0.00174342,0.00236595,0.00206202
-0.0219728,-0.0137102,-0.00493258,-0.000913039,-0.00967479,-0.00378507
0.0125215,0.00222909,0.00400819,-0.000753671,-0.00482798,-0.00282431
-0.00468222,-0.00414402,-0.00474772,-0.00245309,-0.00197613,0.00266623
-0.0426156,-0.00411665,0.00339019,0.00253306,0.00248945,0.0025934
0.0309871,-0.0265225,-0.00110618,-0.00121346,-0.00133646,0.0041579
-0.0199019,-0.0328798,0.00581076,0.000542521,-0.00440878,0.00461584
0.0348822,-0.0552772,0.0428658,0.000805244,-0.000365198,0.00012517
0.0578228,-0.0361547,0.122339,0.00238018,-0.00277328,-0.00480354
0.109855,-0.134125,0.119811,0.00242555,-0.00070256,-0.00215864
0.164147,0.00744999,-0.0189002,-0.0124813,-0.010047,-0.000645339
-0.0922865,0.0193396,-0.00576267,-0.000309795,0.00382471,0.000144482
0.365797,0.0507948,0.548675,-0.0194047,0.0870613,0.0450073
0.365634,-0.0290166,0.468452,-0.00901134,-0.0406497,0.000576735
0.154151,0.0457401,0.106215,-0.0131906,0.0363409,0.0313275
-0.320436,0.097242,-0.118709,0.00578727,-0.0611652,-0.0116498
-0.491574,0.127217,-0.301632,-3.06666e-05,0.00537983,0.003829
-0.250563,0.254781,-0.301162,0.00662649,0.00269407,0.0011065
-0.119694,0.295134,-0.307216,-0.0163363,0.00122118,0.00146532
-0.102921,0.0949822,-0.237235,0.0169334,-0.00303638,0.000833333
0.044238,0.0543798,-0.035294,-0.00456192,0.00397599,0.0062753
-0.169151,-0.0699986,-0.0922048,0.00553212,-0.0177572,-0.00679094
-0.228936,-0.0220588,-0.0672308,-0.00485811,0.000921845,0.00467336
-0.0194657,-0.0669303,-0.0326929,0.000961468,0.00779736,0.008744
0.00829981,-0.0328978,-0.00243467,-0.00270048,-0.00390339,0.00281632
0.0202774,-0.0616424,-0.00761981,0.00433561,-0.00102031,-0.000915051
0.0159297,-0.0499313,-0.00661111,0.00274248,-0.00238049,0.00219578
0.11737,-0.0893929,0.0170677,0.00166157,0.000329614,0.0171677
0.129131,0.0447151,0.0170608,-0.00945853,-0.00716352,-0.00127906
0.363144,-0.00653765,-0.0198483,0.00471178,0.0232756,0.00777066
0.770613,0.0112787,-0.105192,0.00860092,0.0609422,0.031463
0.803235,0.0506425,-0.126279,-0.00754359,0.0543861,0.0509557
-0.251667,0.06522,0.0298618,-0.00586426,-0.0791713,-0.0202245
0.155789,0.00639731,-0.0468344,-0.0150574,0.189123,0.0470601
0.190767,0.02764,0.0188495,6.88732e-05,-0.00307539,0.00163192
-0.0244271,-0.0126514,0.0228768,0.0121483,-0.0180603,-0.0227975
-0.246239,0.0662813,0.0277812,0.0033662,-0.0716821,0.0275722
0.364635,-0.102338,-0.0497234,-0.00276519,-0.0108684,-0.0117316
0.0673315,0.0788216,0.0291771,-2.40356e-05,-0.0439755,-0.010846
-0.0275292,0.00225758,0.00783728,-0.00359073,0.0189248,0.00790071
-0.181108,-0.0348825,0.013635,0.0161774,0.00631964,-0.00226349
-0.282585,-0.171062,0.0104743,0.00678183,-0.0460267,-0.0167567
-0.0479088,-0.0275291,-0.00521274,-0.00349694,0.0290934,0.0114213
0.0415562,0.117165,0.00850119,-0.00850509,0.00418755,0.0154526
-0.495453,-0.0836151,-0.0134409,0.0127192,-0.0420046,-0.00437087
-0.358104,-0.0134634,-0.0215958,0.00457077,0.0183532,0.00235039
0.102562,0.00748861,-0.023891,0.001773,-0.00363833,-0.000677943
0.151024,0.0106446,-0.00513895,0.00601582,-0.0220843,-0.0083791
0.0277016,0.0160545,-0.00119062,-0.003719,-0.00963694,0.00953496
0.191083,0.0138082,-0.0100438,0.000382185,-0.000975609,0.00532979
0.0392595,0.0383933,0.0288999,0.00203425,-0.000611752,-0.0130364
-0.00575103,0.00649889,-0.00691571,-0.00536188,-0.00094682,-0.000441194
-0.0265251,0.0576057,0.00993181,-0.00778034,-0.0213963,-0.00865769
-0.00584193,0.00756277,0.00164991,0.00276765,0.00624132,0.00156331
-0.00154295,-0.0105402,0.00599586,-0.00257191,-0.00336078,0.00568318
0.0232723,0.00754394,0.00948066,-0.00278112,-0.00245088,0.00223196
-0.0101682,0.00863135,0.00160101,-5.46873e-06,-0.00325394,0.00336969
-0.0308438,0.0501629,0.0098969,-0.00307105,0.00377738,-0.000339806
-0.185413,-0.00933507,0.00927297,0.00165355,-0.0130756,-0.00421917
-0.150997,0.0300159,0.0235366,-0.00225629,0.00283003,0.00531286
-1.3227,-0.239459,-0.101891,0.0321316,-0.053202,-0.0956011
-4.98616,-1.41826,-0.319972,0.121106,-0.0720929,-0.194505
-1.98595,-0.383591,-0.67353,-0.0327001,-0.114152,0.052308
-0.794211,-0.0311928,-0.196762,0.0235577,-0.103958,-0.00578374
-1.45354,-0.102078,-0.0125086,0.0479878,0.00168538,0.00998831
2.91825,0.0127569,0.408452,0.0701803,-0.0556593,0.0523869
4.15838,0.561013,0.789219,-0.0373688,-0.00969785,0.112366
2.40953,0.334606,0.422727,-0.067517,-0.0529895,-0.15217
-0.0865502,0.426964,0.23374,-0.0163765,-0.134363,0.0639883
0.118197,-0.0585326,0.038457,0.0333536,0.00421894,0.0060364
-0.115568,0.00124845,0.0507422,-0.0208476,-0.0123975,-0.0173501
0.0605629,0.0255899,0.061268,0.00278668,-0.00566596,-0.00159216
-0.114619,0.0374588,-0.0435122,-0.00352576,-0.0205784,-0.00201106
-0.0187289,0.00864079,-0.00706055,0.00315733,0.0170508,0.0138659
0.0827515,-0.0148525,0.0112494,-1.92821e-05,0.00435501,0.00410563
0.0267292,-0.0361049,-0.00650714,0.000394136,-0.00456238,-0.00172353
0.0299275,-0.0243984,-0.00326956,-0.00065884,0.00277704,0.00361383
-0.0218668,-0.00626334,-0.0156549,-0.000370145,-0.00666529,0.00350106
-0.00901124,0.000116116,-0.00480215,-0.00247456,0.00107348,0.00499296
0.0136045,0.000100896,0.00402452,-0.00137097,0.00690973,0.00570732
-0.00132209,-0.031817,-0.0132437,-0.00234194,-0.00238705,0.00246722
-0.0153134,0.016093,-0.0241619,-0.00223485,-0.00495678,0.00036341
-0.0563981,0.0246397,-0.0257061,-0.00225519,-0.000172377,0.000805855
-0.0747422,0.0214594,-0.0291245,-0.00305425,-0.00244784,-0.000848651
-0.126991,0.0119118,0.00455946,-0.000810176,-0.00726455,-2.19941e-05
-0.123535,0.0119145,-0.015745,0.00133817,0.00238538,0.00368536
-0.0166564,0.00969938,0.00152488,0.00123477,-0.00100762,0.00192392
-0.0327149,0.00546,-0.0136394,-0.00111994,-0.0037269,0.000587463
-0.0337347,0.000139184,-0.019,-0.000898689,0.00451511,0.00179285
0.00833954,-0.0403427,-0.00563196,0.0034368,0.00126243,0.0046916
0.00834753,0.00861943,-0.0110398,-0.00613484,-0.000614583,0.00410336
0.0428817,0.0171132,-0.00529707,0.0023254,0.0031442,-0.000683069
0.0352321,-0.0361077,0.00751752,-0.00980766,-0.000623405,0.00199246
0.0900439,-0.0287058,0.0391808,0.00311323,-0.0065673,-0.000894606
-0.0252456,-0.00626045,-0.0028399,-0.0068672,-0.00159264,0.00322938
-0.0456769,0.00334276,-0.0148525,0.00346701,-0.00185537,0.000673532
0.0147067,0.0022268,0.00188995,-0.00403397,-0.00239718,0.000156164
0.0158716,-0.0158616,-0.00449465,-0.00219226,-0.000630796,0.00358868
0.00926312,0.0064857,0.00503347,0.00013648,0.00452173,0.0018549
0.00495466,0.00010698,0.00392613,-0.00246418,0.000774384,-6.9797e-05
-0.000401522,-0.0169172,0.000673272,-0.00151786,-0.00343245,0.00370967
0.0256123,0.0086126,-0.0076234,0.000245526,0.00104779,0.00455683
-0.0234527,0.0629566,-0.0778269,-0.000415653,0.00374681,0.00999957
-0.144097,0.0779579,-0.124181,0.00309463,0.000701785,0.00663871
-0.0974179,0.0236102,-0.0325902,-0.00353426,0.0093627,0.00788403
-0.0137667,-0.0062751,0.0369118,-0.00271031,0.00726473,6.75917e-05
-0.00062924,-0.000958673,0.0209942,0.000142843,-0.00991434,-0.000397146
-0.0598553,0.0139939,-0.00431806,-0.00041531,-0.00318909,-0.00302446
-0.00376854,0.0182046,0.00915867,-0.0041101,-0.000770688,0.000613093
-0.0144512,0.000120235,-0.00165046,-0.001121,0.00226641,0.00537825
-0.0187909,-0.00732928,0.000448004,-0.00151712,0.00238699,0.00642717
-0.00798663,-0.000942796,0.000573882,0.000499427,-0.00229228,0.00119859
0.0157472,-0.00309187,0.00619692,-0.0025232,0.001423,0.00232768
0.0071217,-0.00415371,0.00395333,0.000337332,-0.00275511,0.00119627
-0.00899107,0.00118603,-0.00693815,-0.00129068,-0.00309414,0.000442147
0.00284054,-0.0030856,-0.000379885,-0.000421718,-0.000573754,0.0060581
-0.0187522,0.00970411,-0.00492121,-0.000673249,-0.000382125,0.00309879
0.00600086,0.00117169,0.00715143,-0.00234365,0.00160265,0.00394189
-0.00686523,-0.00627066,-0.00262734,0.000400811,0.00213134,0.00126588
0.00179505,-0.00521324,-0.00360217,-0.00112312,0.0027734,0.00246286
0.00282303,0.00330062,0.000683924,-0.000901759,-0.00236887,0.00211042
0.0286928,-0.00736011,0.00955996,-0.00179848,0.00120443,0.00645643
0.0243173,8.62069e-05,0.0137769,-0.00215833,0.00630111,0.00367528
-0.0370507,0.00440153,-0.0126128,-0.00329761,-0.000865698,-4.27365e-05
0.0406104,-0.00843468,0.00755225,-0.000902951,0.00259596,0.00298721
0.0201862,-0.00522133,-0.00445786,-0.0028419,0.00431412,0.003914
0.0567846,-0.0297434,0.0141734,0.000142947,0.00105548,0.00159037
0.015895,-0.00521856,-0.0077202,-0.00375485,-0.000883341,0.00208366
0.00612596,0.000105853,-0.00462947,0.00310221,0.00490087,0.00184953
0.0179175,0.00116067,0.00514149,0.00142044,7.31945e-05,0.000845671
0.0394111,-0.00205067,0.0182383,-0.00182612,0.00187021,0.00178498
-0.00471648,-0.00414175,-0.00153204,-0.00301071,-0.00445479,-0.000215769
0.0049275,-0.00628061,0.00714429,-0.00122827,0.00206089,0.00844181
-0.0047445,-0.00946579,0.00168389,-0.000947148,-0.00180262,0.0032078
-0.0155129,0.00225326,-0.00380251,-9.59337e-05,-0.0117745,-0.00218195
-0.0122818,0.00437676,-0.00270081,-0.000185162,-0.00331652,0.00534016
0.00705469,0.00649146,0.00929797,-0.00147985,0.000269055,0.00265288
0.00170944,0.00117569,0.00389065,-0.00331941,0.000205398,0.00307983
-0.00256738,-0.000954515,-0.000445611,-0.00198177,-0.00322628,0.00211358
0.000665944,-0.00202041,0.000664358,-0.000899747,-0.00346017,0.00197399
0.00714254,0.00862037,0.000728382,-0.0018146,-0.00126851,0.00180995
-0.0187558,0.00119242,-0.00383663,-0.00383344,0.00120831,0.00312108
-0.0317311,0.00332326,-0.00399553,-0.000792786,-0.00492072,0.000441074
0.012514,-0.00202627,0.00508656,3.01898e-05,0.0013358,0.00270504
-0.00149803,-0.000952507,0.000641136,-0.000290543,-0.0005759,0.000578284
-0.0220802,0.0160899,0.00252783,-0.00138743,-0.00106817,0.00237751
-0.0274432,0.00439418,-0.000722545,-0.00180076,0.00169849,0.0049547
0.0157157,-0.00416143,0.00940429,0.000131547,0.00147146,0.00323355
0.0459382,-0.00738007,0.0151015,-0.00315933,-0.0031215,0.00181389
0.00485648,-0.00308574,0.0135685,-0.00149043,-0.00127393,0.00469148
-0.00151934,-0.000957649,0.00277646,-0.00366491,-0.00152749,0.0046621
-0.0165327,-0.00306755,-0.00916317,6.3464e-05,0.00177449,0.00190902
0.00607188,-0.00308304,0.000734098,-3.34233e-05,0.00188702,0.00182348
-0.000369351,-0.00308363,-0.00362997,-0.000910044,0.00323963,0.0048269
0.00172155,0.000112101,0.00282191,-0.00226292,-0.00215375,0.00623327
-0.00689179,-0.00201363,-0.000490814,-0.00108062,0.00464612,0.0028131
-0.0100965,0.00331369,-0.0048133,-0.00102504,-0.00181431,-0.00137585
0.0146939,0.00329315,0.0029622,-0.000966087,-0.00299513,-0.000215888
0.0179204,-0.00203119,0.00514664,-0.00180759,0.00191945,0.0025599
0.0060723,-0.000965168,0.000717905,-0.00128517,-0.000114202,0.0046218
-0.00897633,-0.00200864,-0.0080075,-0.0019912,0.00216985,0.0020414
-0.000389733,-0.00521248,-0.00148588,5.19305e-05,0.000146031,0.00104725
0.00384736,0.00330279,0.0060546,-0.000105783,-0.00273424,0.00108373
-0.0144407,0.000123266,-0.00271754,-0.00224291,0.00533295,0.00516206
-0.00693262,-0.00627103,0.00379776,-0.000331357,0.000397742,0.00778723
0.0049786,-0.00201896,0.0017902,0.000764236,0.00107801,0.00351697
-0.0089975,-0.00307425,-0.00586603,-0.000183448,0.00314754,0.00457835
-0.00899533,0.00544389,-0.00694241,-0.00083141,0.00120801,0.00177836
0.00387594,0.00862438,0.00283555,-0.000930488,0.00354803,0.00568891
-0.00147765,0.00117634,-0.00150296,-0.000890613,0.00210637,0.00197899
-0.00900357,-0.00839592,-0.00478894,-0.000498354,8.16584e-06,0.00301564
0.014668,-0.00309967,0.00617373,-0.00107709,-0.00267828,0.00198156
0.00496865,0.00862262,0.00177564,-0.000676706,0.0064711,0.00359994
0.0146936,-0.00841256,0.0040492,-0.00238715,0.000713229,0.00523251
-0.000417146,-0.00095177,0.00065534,-0.00135544,5.88298e-05,0.00331235
0.00494912,0.00437037,0.0039289,-0.00115371,-0.000201344,0.0015173
-0.00257051,0.00117872,-0.000442273,-0.00122099,-0.000554681,0.00111955
-0.0165955,0.00437961,-0.00382119,-0.0011493,0.000953496,0.00198531
0.0136072,-0.0137374,0.00510896,-0.00215715,-0.00105828,0.00320035
-0.000446831,0.00649834,0.00278828,0.000105232,3.43323e-05,0.0041346
0.00392942,-0.000951053,-0.00143254,0.000143707,0.00321817,0.00369877
0.0114677,-0.00203082,0.00185472,0.000777543,0.00126308,0.0049659
-0.0111828,0.00651618,-0.0048182,-0.00221469,0.00231612,0.00219357
-0.0208889,0.00545207,-0.00707795,-0.00180666,0.00120258,0.00359917
-0.00256241,-0.00733516,-0.000431408,-1.9297e-05,-0.000343502,0.0017947
0.0113945,0.00329298,0.00827684,-0.000531733,-0.00268292,0.0016557
-0.0058175,0.00437482,-0.00048183,0.000191331,-0.00162023,0.00126195
-0.0133342,-0.00306917,-0.00484171,-0.0025584,-0.00401479,0.00433695
-0.0111509,0.000116096,-0.00697057,-0.00209819,0.00158405,0.00338137
-0.0155241,0.00331285,-0.00273884,9.58741e-05,0.000330985,0.00406909
0.0114255,0.00648441,0.00505836,-0.00109184,0.00337887,0.00235039
0.00928961,0.00116913,0.00290425,-0.000137448,0.00410819,0.00416982
-0.00365111,0.00117675,-0.000458039,0.000179663,6.16312e-05,0.00261688
-0.000370985,-0.00201671,-0.00362791,0.00159776,0.00199461,0.000667691
0.00498822,0.00116763,0.000707432,-0.00131796,0.000944316,0.0057773
-0.00254089,-0.00521123,-0.00258175,-0.00306281,-0.00585026,0.00247014
0.0352152,-0.0084298,0.00642119,-0.00104077,0.00405234,0.00521344
0.0406188,-0.0169501,0.00756116,6.75917e-05,0.00262249,0.00419915
0.0429817,-0.02759,-0.0106014,0.00293529,0.00276858,-0.00913817
0.0331639,-0.0584366,-0.102774,0.00274637,0.00422323,-0.0202702
0.971543,-0.0463015,-0.287019,-0.0172533,0.0935462,-0.0420052
1.61692,-0.274397,-0.970095,-0.104965,0.237361,-0.218776
2.15287,-0.310862,-1.44474,-0.0769311,0.0956568,-0.103706
2.64723,-0.125954,-1.68667,0.0100518,0.0836458,0.0424668
1.72695,-0.461759,-1.23635,0.0765884,0.115822,0.134701
0.967574,-0.298468,-0.710819,0.0330945,0.0396053,0.13141
0.548882,0.00616944,-0.306855,0.0331282,0.0511478,0.121916
0.204983,0.185203,-0.114987,0.0140366,0.0354915,0.0601557
-0.087657,0.0917009,0.0616714,0.026853,-0.0180066,-0.040969
-0.0812915,0.0203433,0.183873,0.00417452,0.0495799,-0.00348985
-0.214645,0.00343108,0.114928,-0.00429241,0.0311283,-0.010527
-0.155095,-0.0529984,0.0096624,0.00611663,0.010581,-0.00573778
-0.226565,0.00769873,0.116932,-0.0253027,0.00563112,0.0342065
-0.204958,0.0672626,0.216689,-0.017549,0.0157484,-0.0163862
-0.244865,0.0896538,0.204443,-0.0299065,0.0268288,-0.0384588
-0.373857,0.123801,0.230781,0.0266723,0.0411067,0.0519814
-0.0250196,0.299233,0.0493334,-0.0311083,-0.00625762,-0.112259
-0.130308,0.0843019,0.00445535,0.0102595,0.0461866,-0.0252888
-0.26401,0.098188,0.173162,0.0242657,0.0512285,0.0627741
-1.42661,0.132923,0.906252,0.161516,0.0351014,0.196507
-1.76653,0.28738,1.44403,0.0525215,-0.0287773,0.129878
-1.36785,0.435144,1.04901,-0.0505601,-0.0201246,-0.0666918
-0.408778,0.355797,0.549228,-0.0857507,-0.0261018,-0.126136
-0.431708,0.154702,0.27935,-0.0381313,0.033804,-0.0070681
-0.359594,0.0535733,0.114314,-0.00788599,0.0455227,0.00694066
-0.0475354,0.0991252,0.0503403,0.0138407,0.0152898,-0.00446457
-0.412973,-0.135856,0.0667771,0.00247958,0.00374901,-0.092011
-0.412155,-0.0687798,-0.0178745,-0.0262963,0.00717437,0.053045
-0.330732,0.114267,-0.0663783,0.0237806,-0.00478721,-0.0234723
-0.324721,-0.090136,-0.000799705,0.00116668,0.0202054,-0.0116132
-0.436573,0.0344864,0.0320806,-0.00549698,0.0318574,0.00606662
-0.0900555,-0.0147281,-0.00892093,-0.00494526,0.00673366,0.00820923
-0.127684,0.0619464,-0.0372641,-0.000705853,0.0101432,0.00401199
0.0168098,-0.048878,0.0126637,0.0108901,-0.00263104,-0.00141841
-0.0307913,-0.0115847,0.0110187,-0.00813477,0.0107545,0.0114096
-0.081587,0.00974629,0.00614319,-0.00023298,-0.00107962,-0.000397682
0.0677085,0.0266687,-0.00182016,0.00150354,0.0115154,0.00579047
-0.00370065,0.0182028,0.00273083,-0.00560178,0.0114098,0.010763
-0.00571964,-0.0243728,-0.00688755,0.00333266,-0.00306261,0.00337481
-0.0565309,0.0139832,-0.0117883,-0.017687,-0.0101587,0.0294378
-0.0941962,0.0140188,-0.0293423,-0.00155792,-0.0108623,-0.00284851
-0.0843404,0.0129477,-0.0410106,0.00348331,0.00779065,0.00239098
0.0134648,0.029895,0.0146901,-0.00218317,0.0147401,0.00989443
0.0340853,-0.0574097,0.0160769,0.00190319,0.00541896,0.00481242
0.0882977,-0.0308249,-0.000455376,-0.00329219,-0.0107799,-0.00369751
-0.0369535,-0.0232831,-0.0190215,0.0073282,0.0236728,0.00661302
0.119588,-0.00744007,0.0041471,0.00506972,-0.000111073,-0.00266337
-0.0953427,0.0459516,-0.0261763,-0.00108063,-0.00738966,0.000476122
-0.120384,-0.0274856,-0.00283347,0.00485086,-0.0124181,-0.00266409
-0.255803,0.0119967,0.0170107,0.0020908,0.0137407,-0.00193954
-0.00578501,-0.0371488,0.000618588,0.0043975,0.0155143,0.00993878
0.0166404,-0.0244006,0.0265545,-0.000196442,0.00249925,0.00816023
-0.0403969,0.00864895,-0.00303179,-0.00106528,-0.00668201,0.00158954
-0.0263881,0.0118284,0.00140351,-0.000684917,-0.00428465,-0.00121427
0.0232978,0.00647079,0.00732883,-0.000218645,-0.000206172,0.00162691
0.0287687,-0.00204821,0.00204487,0.00174886,0.0084379,0.00455105
-0.0155595,-0.0147945,0.00261933,-0.00110976,0.00847441,0.00615817
0.217961,-0.0660587,0.0128166,0.00228222,0.0131154,-0.00319898
0.446732,0.00830577,-0.0521157,0.00384369,-0.0452679,-0.0173352
-0.128113,-0.00193108,0.00990854,0.00395612,0.00496519,-0.000190198
-0.138846,0.0193668,0.000127075,1.12504e-05,-0.00791064,-0.000436485
0.129132,9.65782e-07,0.0213809,-0.00289795,0.0247351,0.00943959
-0.0875737,-0.00940061,-0.0399501,-0.000110298,-0.0186751,-0.00664788
-0.101871,0.0427576,-0.0219697,-0.00160374,0.00754601,0.00647318
-0.0350604,-0.01052,0.00561024,0.0016064,0.0086551,0.00667918
0.0169011,-0.0286489,0.00193948,-0.00219332,0.000605464,-0.00314593
-0.0534277,0.0203638,0.00108833,-0.00242279,7.33137e-05,-0.00100344
-0.0318294,0.00225087,0.00563382,0.00180727,0.00355604,0.00207901
-0.0134164,0.00542503,0.00261891,-0.00232139,0.00285444,0.00650537
-0.0521851,-0.00624757,-0.0117226,-0.000155553,-0.0014056,0.00529569
-0.0834958,0.0150687,-0.01852,-0.00692481,-0.0142424,0.00647843
-0.0587104,0.0203689,-0.0107518,0.002343,-0.000470877,0.000238895
0.0265574,-0.00737826,0.00736849,0.00127915,0.010321,0.00900829
0.0234232,-0.00630321,-0.0033682,-0.00198004,0.00136709,0.00399154
-0.0769707,0.000160346,-0.0205747,-0.00122739,-0.00502381,0.00117159
-0.0112603,0.000102986,0.00372206,-0.00010851,0.0112223,0.00717336
0.0288712,-0.00311397,-0.00759407,-0.00145738,-0.00172344,0.00240666
0.0276898,-0.00311772,0.00202626,-0.000860378,-0.000698954,0.000312448
0.0482704,-0.00632642,-0.000950724,-0.0012551,0.00095886,0.00294304
0.0288168,-0.0158885,-0.00115696,-0.000794798,-0.00189602,0.00162154
0.0114729,-0.00417327,0.00183966,-0.000979528,0.00752893,0.00782025
-0.0371968,-0.000946956,0.00235227,-0.0028735,-0.00188708,0.00326359
0.00811516,-0.00310416,0.012514,-0.00122063,0.00285199,0.00249553
0.0211873,0.00114283,0.00301675,-0.0025375,0.0089111,0.00601923
0.00704581,-0.00310616,0.0114273,-0.00262804,0.000876606,0.00175828
-0.0759245,0.012932,-0.0184348,0.000596523,-7.22408e-05,-0.000208139
0.0296568,0.00219879,0.0202459,0.00195798,0.010027,0.00313091
-0.00359763,-0.00521912,-0.0047469,0.00132589,-0.00771332,-0.000827789
-0.0834793,0.0214535,-0.0206707,-0.00258209,-0.00223145,-0.0024882
-0.0457301,0.0043893,-0.0095217,0.00180764,0.00761592,0.00526023
0.016918,-0.0094988,-0.00130553,0.000980139,0.013284,0.00700152
-0.00469298,-0.00202642,-0.00369332,-0.00311434,-0.00141591,-0.000154853
-0.0187315,0.00224451,-0.00599528,-0.0017924,-0.00459045,0.00194353
-0.0111924,0.0107486,-0.0037839,-0.00359581,0.00198746,0.00615072
0.00925982,9.21888e-05,0.00610225,-0.003676,0.0167726,0.0115708
0.0464828,0.0277262,0.0632446,0.000727132,-0.0109549,-0.00252342
-0.0388531,-0.0285993,-0.0436663,-0.000832722,-0.0220451,-0.00973696
-0.0674922,-0.00411206,0.00416184,-0.00203057,0.0301005,0.0126701
-0.0533377,0.032071,-0.00856417,-0.000850618,-0.0138941,-0.00547457
0.0136914,-0.0052334,-0.00348186,0.000422195,0.00897238,0.00614041
0.0438519,-0.0127158,0.00863769,0.000841901,0.00902823,0.0103757
-0.0132866,-0.00202023,-0.00914623,-0.00173748,-0.00535414,0.00149083
-0.0251232,-0.00307519,-0.0146337,-0.00027512,-0.00845572,-0.000801086
0.0266861,-0.00205182,-0.00548275,-0.000934541,-0.0021567,-0.000324011
0.0105854,-0.00948259,-0.0163575,-0.000768125,0.00540605,0.0034706
0.017859,-0.00311723,0.0115459,0.000585631,0.00315523,0.00511867
0.00494255,0.00540999,0.00496718,-5.75632e-05,-0.000372767,0.00197309
0.0309375,0.00433049,0.000983796,-1.37091e-06,0.00481287,0.0051353
0.0359566,5.86947e-05,0.0385192,-0.00723523,0.0219574,0.00954974
-0.0263068,-0.000949701,-0.00501506,-0.00143874,0.00150776,0.00146461
-0.00706354,-0.0169357,0.017705,-0.00621396,0.00110129,0.00255632
-0.00907952,0.0150062,0.000521827,0.00395878,-0.0113219,-0.00319451
-0.0197765,0.022469,-0.0113839,-0.00320227,-0.00438985,-0.00132954
0.0610105,-0.019109,0.0227703,0.00122651,0.00594398,0.00498271
0.175325,-0.0809777,0.162237,0.00396524,0.0273074,0.0164863
0.160136,-0.0405171,0.163095,-0.00492589,-0.00775576,-0.00853533
0.0863141,0.0255542,0.0808178,0.000890329,-0.0116642,-0.00355887
-0.0208257,-0.0318191,-0.00920137,-0.00895935,0.00697991,0.00832415
-0.250363,0.0513957,-0.0932638,-0.00178686,-0.0108166,0.000715792
-0.136162,0.00552098,-0.0480342,0.00459208,0.0120875,0.00361419
0.119517,-0.0127729,0.0116356,-0.000882894,0.00201017,-0.00129879
0.00607369,-0.0116184,0.0017886,-0.00090453,0.00332424,0.00455695
0.0125263,0.0128556,0.00290351,0.00111799,-0.00170833,0.000917554
-0.0101537,-0.012677,0.00266908,0.00113375,0.00534683,0.00758141
-0.0165495,0.00755502,-0.00813096,-0.00187778,-0.0116524,0.000462949
-0.13475,0.0193748,-0.0812136,-0.00339302,-0.00458252,-0.00043416
-0.0580103,0.0374119,-0.0792936,-0.000398666,0.00243598,0.00210166
0.0278207,0.0128463,-0.0119156,-0.00180045,0.00727189,0.00678718
-0.0875225,0.0321015,-0.0485743,-0.00304319,0.00322294,0.00229645
-0.0745059,0.0459332,-0.0537917,0.000855252,0.000451684,0.00729674
-0.0994114,0.0608517,-0.0519496,0.00959308,-0.00595194,-0.0020628
0.161551,-0.058576,0.0292941,0.0119154,0.00476158,-0.00108922
-0.0372501,-0.070142,0.0141957,-0.00652841,-0.00955844,0.00445712
-0.112918,0.0448803,0.000377163,-0.00687999,0.0110601,0.0155808
-0.0383107,-0.0807803,0.0131301,0.00873084,0.00371927,0.00706005
-0.00909806,0.0352237,0.000492212,-0.00488958,-0.0106872,-0.00489432
-0.0199892,-0.0105368,0.0122002,-0.00271985,0.000569642,0.00911582
-0.0417219,-0.0137206,0.0226596,0.00275862,-0.00426549,0.00414836
-0.0328759,0.0139545,0.00131811,0.000640839,-0.00686163,-0.00370353
-0.0683067,0.0203762,-0.023713,-0.00355314,-0.00322419,0.00239325
0.0168889,-0.00205084,0.000824681,-0.00201972,0.00649136,0.00309092
0.0179079,0.00327336,0.00618964,0.00116286,-0.00662899,-0.0010252
-0.0252306,0.0160778,-0.00609474,0.00325336,-0.00570071,-0.00216657
-0.0533624,0.00119867,-0.00318228,-0.000837713,-0.000223398,0.0061413
-0.0684574,0.0161079,-0.00872907,-0.000629634,-0.00555289,-0.00246859
-0.0481243,0.0128995,0.0118547,-0.00134881,-0.00306493,0.00526512
-0.0177345,0.00968666,0.00149544,-0.00243127,0.0025177,0.00158012
0.025178,0.0117735,0.0340983,-0.00176716,0.0141383,0.0121906
-0.032776,0.0150198,-0.00832022,0.00247946,-0.014693,0.000752091
-0.100716,0.0161386,-0.0262229,-0.0032593,-0.00637668,0.0019055
0.0372245,0.00431721,0.0203232,-0.00190881,0.0100352,0.00600767
-0.0112428,-0.00628323,0.00265825,0.000790119,-0.00158286,0.000546694
-0.0219617,0.0128841,-0.00819403,-0.00186308,0.00373733,0.00493968
-0.0283636,-0.0062668,-0.014668,-0.000541762,9.78112e-05,0.00451517
0.0307968,6.70124e-05,0.014903,0.00361344,0.00480914,-0.00221759
-0.000280473,-0.00948669,-0.0111408,0.00217794,-0.00417334,0.00145978
-0.0219229,-0.00414404,-0.0103146,0.00112689,-0.00211877,0.00148553
0.0254862,-0.00737228,0.0062919,0.000779688,-0.00196332,0.000742674
0.0276761,7.23386e-05,0.00308975,-0.000420183,0.00176948,0.00073421
-0.00449075,-0.0137325,-0.0218836,-0.00421281,0.0099982,0.0112197
-0.00678693,-0.00414908,-0.0101353,0.000357077,0.0153352,0.00898284
-0.0133058,-0.00521416,-0.00700185,-0.000723377,-0.00443083,0.00131649
0.0243664,-0.000991636,0.00947722,-4.35263e-05,-0.00500095,-6.53863e-05
0.0233777,-0.00418118,0.000904611,-0.000304699,0.00207257,0.000244617
0.0136072,0.00114908,0.00400276,-0.00308359,0.0039342,0.00581586
-0.00360577,-0.00629245,-0.00368618,-0.000126749,-0.00108248,0.00494385
-0.00788206,-0.000957301,-0.00908292,0.00183354,-0.000882506,0.0051015
-0.0144467,0.00968809,-0.00274665,-9.69321e-05,-0.00177336,0.00234079
0.0201202,-0.00204828,0.00193866,0.00127771,-0.00151742,-0.000548005
0.0147756,-0.00842667,-0.00346524,0.00113958,-0.000274837,-0.000288546
0.0233521,-0.000988317,0.0030426,-0.00204685,-0.00168771,0.00515848
0.0114583,-0.00203877,0.00291555,-0.00179359,0.0034917,0.00471413
0.012501,0.00328042,0.00613229,-0.000905588,0.00249213,0.000740588
0.0254626,-0.00630743,0.00843319,-0.000346765,0.00184119,0.0018661
0.0114833,-0.00416963,0.00077337,-0.000383422,-0.00206685,-0.00135875
-0.00469969,-0.00628547,-0.00261964,0.00127733,-0.00236475,-0.0022077
0.00930112,-0.00629964,0.00288945,-0.000185832,-0.00164491,0.00522316
0.0050043,-0.000973014,-0.000376263,3.24994e-05,0.00148487,0.00437343
-0.000446796,-0.00202933,0.00385255,0.00011003,0.000962913,0.00172675
0.0244361,-0.00524053,0.00306731,0.000824243,0.00101149,0.000698745
0.0114666,0.00115336,0.00183981,0.000296474,0.00321227,0.00192261
0.00287296,0.00115954,-0.0036131,0.000878677,0.00379407,0.000513196
-0.00145816,-0.00415863,-0.00258463,0.00087446,-0.000510395,-0.000416279
0.0136223,-0.00310668,0.00293877,0.000108063,-0.000311017,0.00242573
0.0319635,0.00432528,0.00634509,-0.00097464,-0.00466448,0.00605845
0.0319462,0.00859087,0.00742158,-0.00623,0.00151324,0.00470066
0.00497629,0.0139375,0.000689961,-0.00552298,0.000446975,0.00702763
-0.0553461,0.0118525,-0.0214136,-0.000549272,0.00554138,0.00167382
-0.00692126,-0.014799,0.00379066,0.00301696,0.00392812,0.00306499
-0.0328291,0.0097072,-0.00294788,4.40329e-05,-0.00390786,0.00314254
-0.0154678,0.0043725,-0.00810067,0.000490442,0.0138083,0.00273973
-0.0163056,0.0192773,-0.0327573,-2.35736e-05,0.00524598,0.00288892
-0.00585983,0.00542316,0.00378033,0.00180119,0.0045628,0.0025785
0.0374865,-0.0127038,-0.00320685,0.00202452,-0.016111,-0.00286245
0.0212711,0.0171162,-0.00662947,-0.000279441,0.00541049,0.00696409
0.067626,-0.0116649,0.00998219,0.00218183,0.00754195,0.0120907
-0.168017,0.0438614,-0.00452422,-0.00139715,-0.011753,-0.0116068
-0.124346,-0.0540875,-0.0349755,0.0128008,-0.0225775,-0.00982744
-0.168492,0.0183347,-0.0601742,-0.00579844,0.0114031,0.010604
0.193692,-0.0170604,-0.0496096,0.00835025,0.032972,0.00675392
0.0884715,-0.210698,-0.103071,-0.0117013,-0.00419724,-0.0489362
0.464194,-0.319574,-0.0355425,-0.0582864,-0.0358553,0.0119428
0.492286,-0.262163,0.168159,-0.0528508,0.0114133,0.0162759
-0.545457,-0.10917,0.117703,-0.071594,-0.0744641,0.0558375
-0.454013,-0.114541,0.0598593,0.0219297,-0.0451748,0.0206718
-0.97211,0.0987023,0.154417,0.0793232,-0.0151098,0.0602462
-0.204176,0.17053,0.132,0.102566,0.0364907,-0.0240536
0.0992223,-0.0989175,-0.211212,0.0104508,0.0399101,0.000765145
0.692104,0.146503,-0.0559007,-0.0194212,0.0397739,-0.0058158
0.330726,0.014788,-0.127328,0.0161685,-0.00975442,-0.0324867
0.419016,0.136043,0.000972752,0.0101737,0.0237496,-0.00758702
-0.235956,-0.0838445,0.0933447,0.0171108,-0.0112483,-0.0172641
0.00243016,0.0181839,0.0370562,-0.000415951,0.026392,0.00450939
0.118593,0.00640271,-0.00551236,0.00963871,-0.00246209,-0.0117607
0.0624832,0.0149611,-0.0179368,-7.32243e-05,0.00229523,-0.000294626
-0.0470118,0.0139691,0.0086608,-0.000711486,-0.00310928,-0.00147569
-0.0275309,0.00438436,0.00783242,0.000275984,0.00209168,0.00452769
-0.0340542,-0.00306931,0.0120409,0.00171615,-0.00519389,-9.44734e-05
0.0417914,-0.00418966,-0.00209343,-0.000239611,0.00302023,0.00748104
-0.00696756,0.00968068,0.00590422,-0.000607148,0.00324881,0.000576317
0.0850147,0.0213292,-0.00162429,-0.00398208,0.0137288,0.00956899
-0.0318265,0.000118555,0.00563165,0.000435978,-0.00450203,0.00115567
0.046226,-0.00312081,-0.0127452,0.00218463,-0.000294447,0.00286788
0.0475201,0.00858884,-0.0341615,-0.000553951,0.00754267,0.005611
0.0191836,0.0213735,-0.0141574,0.00121899,0.0100256,0.00141418
0.0321088,0.0032695,-0.00756488,-0.00221342,-0.00108352,0.00147694
-0.0729089,-0.00623112,0.00518112,-0.000642523,-0.0198155,-0.00537109
-0.0621376,0.00227182,0.00850179,-0.00380896,0.0103818,0.00687718
-0.0110895,-0.0264997,-0.010162,0.00115867,-0.00541839,0.0024389
-0.01032,0.0043673,0.0165904,-0.00705992,-0.00650829,0.00500107
-0.0261386,-0.0594828,-0.0156499,0.00413834,0.0395419,0.00828135
0.0232585,0.0128543,0.0105311,0.0027376,0.00510883,0.000410736
-0.00794967,-0.000956748,-0.00265664,-0.00174896,-0.000661254,0.000742555
-0.0146137,0.0405624,0.0100797,0.000154838,0.000319481,-0.00120962
0.025572,0.00647278,-0.0033514,0.0018432,0.00550118,0.00431657
0.0462559,0.0117825,-0.0170428,0.000834435,0.00602418,0.00579739
-0.0328183,-0.000938065,-0.00293801,0.00227822,-0.0221577,-0.000771642
0.0570663,0.00219586,-0.0158378,0.00108238,-0.00961447,0.00217485
0.0334378,-0.0212068,-0.0289376,0.000572667,-0.00128809,0.00223428
0.284503,0.130837,-0.061575,-0.0126486,0.0556856,0.0166826
0.119388,-0.0169965,-0.0793589,-0.00105383,-0.0426623,-0.00729668
0.0123601,0.053314,0.0146544,-0.00498572,-0.0309586,-0.00330877
-1.61806e-05,0.0777924,0.0583866,0.0116724,-0.0164542,-0.00520623
-0.0694172,-0.0754186,-0.0118412,0.000433922,0.0191972,0.00611335
-0.0124726,0.0405563,0.0122403,0.00420614,-0.0188287,-0.00316793
-0.0371054,-0.0062524,-0.00618838,-0.000914678,0.0197018,0.00954568
-0.0144298,-0.0190497,-0.00164339,0.00105484,-0.00066793,0.000450492
-0.0577279,-0.0168834,0.00215502,0.000785857,0.00154293,0.00109202
-0.0355916,-0.06905,-0.0414455,-0.00494803,0.00415859,0.00478339
-0.057558,-0.0296557,-0.0128236,0.00714013,0.00259781,-0.00428015
-0.0610331,-0.0104995,0.00745975,0.00448255,-0.00343746,-0.00441748
-0.0339876,-0.0126528,0.0066917,-0.000320211,-0.00434339,-0.00126928
-0.0698631,0.0022743,0.0234051,0.0012719,0.00504428,0.000183344
0.0254682,0.00966347,0.00628033,-0.00180413,0.00782365,0.00664896
-0.00700087,0.0192662,0.00804323,0.00129576,-0.0105634,-0.00140977
0.0223237,0.0022069,-0.00232619,-0.00078316,0.00311607,0.00230485
-0.00692119,0.00649511,0.00163364,-0.000459328,0.00556087,0.00384808
0.00173188,0.00435548,0.00172831,0.00137502,0.00165004,0.000760794
0.000666477,0.0107442,-0.000430733,-0.00445959,0.013491,0.010174
0.00387022,0.00648074,0.00388991,-0.000253111,-0.00699285,0.00226003
0.00716864,-0.00416217,-0.000341144,0.00243753,0.000703812,0.00157601
