rotation_x,rotation_y,rotation_z,acceleration_x,acceleration_y,acceleration_z
0.0705529,-0.301619,-0.595736,0.00252905,0.00768706,-0.00466019
0.101849,-0.238334,0.177526,-0.0520837,0.0618191,-0.0126815
0.0481964,0.191571,0.432035,-0.00889862,0.00621143,-0.0221495
-0.0427931,0.436408,0.517721,0.0131373,-0.0225422,-0.00320268
-0.250629,0.331123,0.694987,0.0357826,-0.0147864,0.0274628
-0.831385,-0.230998,0.914421,0.0551048,-0.0210916,0.0150985
-0.527258,-0.61986,1.02599,-0.0471277,0.0686851,0.053524
-0.470276,-0.119468,0.709908,-0.0741764,0.0212333,0.0728208
-0.00280529,0.320261,0.0880374,-0.0820405,-0.0558825,0.0514977
-0.568322,0.241731,0.139853,-0.0606643,-0.0568712,0.0457229
-0.588638,0.489066,0.461913,-0.00394802,-0.026202,0.0495583
-0.833718,0.383512,0.469157,0.144218,0.0116152,-0.139801
-1.72796,0.108551,0.446223,0.0167892,-0.0807383,-0.0782835
-1.42381,0.0622232,0.352572,-0.00480875,-0.118214,0.0799403
1.09582,0.398801,0.273279,0.0421201,0.275081,-0.00938332
0.201928,0.303063,0.115627,0.0564709,-0.0229923,-0.0658194
-1.07144,-0.0039068,-0.0495541,-0.0670866,0.10274,-0.0455222
0.523936,0.474527,-0.0402723,0.155517,-0.135931,0.0373427
0.264264,0.258448,-0.32512,-0.0357984,-0.0436096,-0.120222
0.242615,0.293922,-0.206833,-0.106968,0.0591543,0.00963402
0.392248,0.380455,-0.137384,0.012504,-0.030059,-0.0199772
0.490738,0.197258,-0.399734,0.0461353,0.00268263,0.0330169
-0.475229,-0.30417,-0.457796,0.0258593,0.0076797,0.00764728
-0.266178,-0.149089,-0.258218,-0.0261689,-0.010728,-0.0153631
-0.757897,-0.0146076,-0.535524,0.00537103,-0.0239478,-0.0301768
-0.211451,0.340145,-0.237681,-0.00973389,0.037411,-0.00556183
0.745634,0.890916,-0.0656485,-0.0363453,0.029754,-0.00512463
0.211332,0.378833,0.0777737,-0.00089255,-0.0133548,0.065429
0.384636,-0.0187185,0.0510851,0.00817311,0.00416863,0.0114035
0.0465648,0.0113524,-0.00272872,0.00223008,-0.0206592,-0.018041
0.541459,-0.00338304,-0.274304,0.0057953,0.0332489,0.0073387
0.623129,0.109035,-0.703176,-0.0522086,0.00935626,-0.0593092
0.0260991,-0.404342,-0.714903,-0.0559746,0.206294,-0.159635
-0.172807,-0.308146,-1.37871,-0.0235321,-0.030066,-0.0426877
0.594257,-0.50345,-1.55621,0.0999855,-0.173261,-0.0307713
0.117445,-0.0470136,-0.973305,0.03201,0.0114257,0.129396
0.0991512,-0.361679,-1.3314,-0.0343597,0.0830824,-0.115972
-1.1567,-0.764024,-1.05356,0.0745586,-0.0877323,0.0790032
-2.30324,-0.646444,-0.894074,-0.0226301,0.0301572,-0.00778615
-1.43424,-0.173961,-1.54778,-0.0422435,0.0949231,0.0219817
-1.21654,-0.477973,-1.81958,0.0809692,0.0214466,-0.00181204
-2.04088,-1.3477,-1.68133,0.165508,-0.159708,0.0508313
-2.33127,-0.912462,-0.925575,-0.0205315,-0.0832407,-0.029265
-1.7007,-0.170846,-0.493167,0.058349,0.0225577,-0.0995798
-1.97075,0.156974,-0.0667861,0.0885875,-0.0882871,0.002226
-1.38689,0.63745,0.061567,0.0393681,0.078686,-0.0225509
-0.18617,-0.186948,0.117352,0.0578351,0.0120415,-0.0404913
0.133141,-0.466804,0.263535,-0.0164969,0.0344054,0.0124401
0.454568,-0.372408,0.0173146,-0.0188015,-0.0193439,-0.0161994
-0.0266032,-0.22773,0.0776127,-0.00568676,-0.0363851,0.0307006
-0.759192,-0.158369,0.329778,-0.00713426,-0.0465151,-0.00422442
-0.931555,-0.0342739,0.360383,-0.00646019,0.0405014,0.0542277
-0.384872,-0.00293492,0.192343,0.0040071,0.0819972,0.000235081
-0.0391468,-0.0354018,0.100891,0.00664878,0.0199617,-0.00718141
-0.164441,0.0620121,0.164965,-0.00472736,-0.0368921,0.0192175
-0.15577,-0.0020342,0.195331,0.01082,0.0151459,0.00230885
0.17864,0.0350469,0.165359,0.0133577,0.0267922,0.0360134
0.16517,0.0348579,0.0509838,0.00313872,-0.00623482,-0.0102195
-0.178112,-0.0618178,0.206319,0.0200948,-0.0363308,-0.0146549
-0.158443,-0.195194,0.300213,-0.0234543,-0.0318434,0.0412699
-0.337953,-0.0969458,0.207016,-0.0328194,-0.0289759,-0.0321457
-0.155975,0.0520641,-0.0219151,-0.0380896,0.0167555,-0.00997365
0.123297,-0.063464,0.00659175,0.0129357,0.000864178,0.0154545
0.133814,-0.109437,-0.0123042,-0.00541949,0.0192674,-0.00476563
-0.0810256,-0.183924,0.0600309,0.00131178,-0.00157639,-0.0048058
-0.218149,-0.13673,0.110495,-0.00997669,0.0240617,0.0108745
-0.160594,-0.103659,0.110497,0.0229907,-0.0180222,0.0302242
-0.36988,0.0184369,0.202944,0.0214442,-0.0494552,0.0471261
-0.116616,0.120682,0.139121,0.0219084,-0.00112462,0.0241425
0.106698,0.120383,0.0651686,0.0245992,0.0263612,-0.0540788
1.93207,0.0290221,-0.0780539,0.0296624,0.115925,-0.00140667
-0.446355,-0.214134,-0.270225,-0.00936407,0.135661,0.0760988
-0.198672,0.0639561,-0.570267,0.0117249,0.0551762,0.0372481
0.361503,0.3532,-0.465338,0.00487286,-0.011821,0.0456657
-0.202756,0.401066,-0.214537,0.0157539,-0.141602,0.0102195
-0.451119,0.0712015,-0.201577,-0.0163275,0.0259005,-0.0565505
-0.117021,-0.0976282,-0.0870425,0.0264084,-0.00507286,-0.0851638
-0.0280916,-0.101824,-0.00441083,-0.00255907,-0.000727057,-0.0284597
0.346984,-0.224926,0.00954152,0.00494337,0.0173116,-0.0186169
0.654775,-0.431332,0.00455553,-0.0107549,0.0252923,-0.0536671
0.771147,-0.500464,0.227677,-0.00512326,-0.028079,-0.0225068
0.502212,-0.0162521,0.290843,-0.0676966,-0.0239444,0.180134
-0.366581,0.479856,0.178597,-0.00351954,-0.0258943,0.0743777
-1.48151,0.0312456,0.327983,0.0634452,-0.150629,-0.1193
-0.360233,0.0736736,0.0295321,-0.000416458,0.0576352,0.0313526
0.34628,-0.0222042,-0.126399,0.00521809,0.0137394,0.00951982
0.110021,0.0709762,-0.0872854,-0.00292993,-0.0210196,0.0145648
-0.248541,0.0276091,0.00246887,0.00148517,0.00647938,-0.044687
-0.0418093,-0.0248756,0.0110651,0.0101037,0.00641993,-0.0129734
0.00898523,-0.0239488,-0.0475144,2.64645e-05,0.00242701,-0.000726938
0.0815961,-0.00793634,-0.0227741,0.00245404,-4.23491e-05,0.00434566
-0.00753777,0.00505554,0.0377091,0.00191677,-0.0044587,0.00410676
0.0371053,0.00392223,0.0197196,0.00599998,0.00511724,-0.00541008
0.12222,0.00382063,-0.00132912,0.0134147,-0.00224316,0.00304973
0.0731247,-0.0303436,-0.0119755,0.0139997,-0.0032748,-0.0119538
-0.0385127,-0.00348775,0.0258964,0.00537747,0.00236475,-0.00557053
0.0210112,-0.00143947,0.00153271,0.000473261,-0.00120604,0.00277543
0.00290777,0.0199384,0.00132537,-0.00647849,0.000242442,-0.0115871
-0.0396421,-0.00350577,0.0152082,-0.000305116,-0.0017826,0.00206196
0.0336766,-0.0132323,-0.0175763,-0.00293696,0.0118163,-0.00566459
0.0326594,-0.0313734,-0.0078478,0.00163871,-0.000453264,0.00203729
-0.0366628,-0.00357164,-0.0211073,-0.00351727,-0.00259826,0.0190953
0.0198286,-0.0313781,-0.0153723,0.00734627,0.00658795,-0.00522709
-0.00769746,-0.00780802,0.0121501,0.0114918,-0.010797,0.00145006
-0.0193932,-0.0216768,0.0175394,0.012193,0.00164902,0.000709057
-0.0419532,-0.00569236,-0.0147037,0.00148118,-0.00649434,0.00537968
0.014537,0.00281409,-0.0124094,-0.00116503,-0.00723648,-0.000651121
-0.0034497,0.00179681,0.00889871,-0.0013507,0.000107765,-0.0047735
0.0166467,0.0113508,-0.0167312,-0.00692338,0.000467867,-0.0013113
0.0305764,-0.0249503,-0.000416588,0.00336909,-0.00258595,-0.00349498
0.00922429,-0.0185383,-0.00801715,0.00789738,0.00481692,0.00543022
0.0528124,-0.0111227,-0.024999,0.0030905,0.00382364,0.00677919
0.0134693,0.0113591,-0.0135383,0.00105649,-0.00773114,0.000832438
0.0411737,0.0124062,-0.0134407,0.00340199,0.009895,-0.000228882
0.126252,0.00268191,-0.0397703,-0.0105135,0.00491875,-0.00835466
-0.0469145,-0.0141256,0.047302,0.00589454,-0.0103377,-0.0023644
-0.0161125,-0.00670187,0.0302754,0.00842613,0.00293759,0.000439167
0.00832399,-0.00780957,0.0186224,0.00791913,0.0024569,0.000384569
-0.0447866,0.0179129,0.0438971,0.00161582,-0.00493261,0.00263441
-0.0129686,0.00289234,0.0206097,0.00203615,0.0135318,-0.00412202
0.0666254,-0.0122127,-0.0313503,-0.00216067,0.00089711,-0.00479984
0.0604316,0.00280206,0.000583981,0.00067234,0.00539106,0.00569463
0.0752333,-0.0111265,-0.0174357,0.00378078,-0.00504991,-0.00279772
0.00508099,-0.0110245,0.0111513,0.00488746,-0.0140658,0.00564218
-0.410926,0.0183041,0.109838,-0.00119406,-0.0674293,0.0216823
-1.91474,0.160935,0.389625,-0.00450033,-0.0936919,0.061837
-0.983618,0.159124,0.367479,0.0150362,0.112983,-0.0212128
-0.0573652,0.011575,0.0791497,0.00926054,0.0808957,-0.0280967
0.2464,-0.0370011,-0.0785945,-0.00352705,0.0065982,-0.0031476
0.0539434,0.00491625,-0.0154828,-0.00573593,-0.0360835,0.0106314
-0.194081,0.00837645,0.0241701,0.00343275,0.00177956,0.0146706
-0.116577,0.0103733,-0.0225662,0.00458026,0.0111993,-0.0139223
-0.222838,-0.0193665,0.0285139,0.00933504,0.0119306,-0.0125068
-0.0471818,-0.0377007,0.00471652,0.0080862,0.0181832,0.00153732
0.1111,-0.0176673,-0.0770919,-0.00100327,0.00604299,0.00213289
0.086567,0.00690768,-0.0837524,-0.00481105,-0.00908792,0.00226939
0.0643586,0.0101776,-0.0560774,-0.00128746,-0.018403,0.00723553
0.0580381,0.0016581,-0.043222,0.00792539,0.00634649,0.00562727
0.0101821,-0.0036174,-0.0273435,0.00102258,-0.000376493,-0.00605679
0.0486532,0.0156105,-0.0102277,-0.00458264,-0.0128574,-0.00448561
0.058262,-0.0100233,-0.00468474,0.000278533,-0.00178638,-0.00472593
0.0305673,-0.00465959,-0.00375496,0.00115627,-0.00221488,0.00362349
0.031652,-0.00465479,-0.000545579,-0.00215226,0.00175825,0.00232947
0.118879,-0.0165118,-0.0236472,-0.00373971,0.00500003,0.00500035
0.039075,-0.012147,-0.00581154,-0.000213623,-0.00301898,-0.00664067
0.0210478,-0.0174487,0.00911437,0.00320446,0.00382969,-0.00430846
0.0422744,-0.00680933,-0.00583228,-0.00137252,0.00553718,-0.000206709
-0.00339069,-0.00779768,0.0196443,-0.00304872,-0.0136865,-0.000434637
-0.0331153,-0.00453903,0.0376755,0.000961304,-0.000717938,0.00139308
0.050845,-0.00359805,0.00165803,-0.00496602,-0.00528511,0.00372291
0.017896,-0.00461697,0.0154305,0.00124025,0.00332716,-0.00224686
0.00508094,-0.0110242,0.0111507,0.00344229,-0.000452161,0.0022037
0.0231503,-0.011051,0.00373985,0.00262654,-0.00318626,0.00159264
-0.0183432,-0.001389,0.0131371,0.00206661,-0.000493675,0.00210094
0.00713137,-0.00570798,-0.00276822,0.00301898,0.00309145,-0.000743866
0.058083,0.00274121,-0.0357537,0.00550151,0.00279397,0.00481987
0.0112923,-0.00360457,-0.0198615,-0.00280213,0.00447527,-0.00813282
0.0240794,-0.00254725,-0.0198178,0.000428557,0.00367382,0.000497818
0.0251327,-0.00148345,-0.0219579,0.000825763,-0.00237539,0.000335932
-0.017381,-0.00355571,-0.00394107,0.0020448,0.000829995,-0.00576532
0.0156286,-0.00892721,-0.00698761,0.00418603,-0.00220957,0.000897169
0.018878,-0.00571051,0.00155214,0.00136381,-0.00695875,-0.003721
0.00935362,-0.00247943,0.0121786,6.8903e-05,0.00684434,-0.00307965
-0.00774327,-0.00995746,0.00468477,-0.00052321,-0.00561339,-0.00311685
0.0433606,-0.0035992,-0.00264529,-0.00488913,-0.00987443,-0.0032171
0.0104677,-0.020623,0.0219169,0.00927174,0.00944746,-0.00190544
0.0571118,-0.0132512,-0.0185582,0.00287324,0.00224277,-0.000134706
0.0177616,-0.00465515,-0.00700922,0.00135911,0.00060764,0.00013566
0.00390124,-0.021736,-0.00694999,0.00501549,0.000846535,-0.00443423
0.0761283,-0.0325375,-0.0440053,0.00590467,0.0121928,-0.00284767
0.0581013,-0.0250234,-0.0302293,0.00579613,-0.00335187,0.00132561
0.0156607,-0.0217348,-0.000492716,-0.000349164,-0.00562972,-0.00544596
-0.000329338,-0.00997588,-0.00276696,0.00191367,-0.00118789,0.000144839
0.0199513,-0.00250362,0.00260115,0.00274903,-0.0026499,0.00112987
-0.00452601,-0.00674915,0.00788022,0.00450742,0.00287193,-0.00207162
-0.0141513,-0.0014131,0.00140089,0.00122505,-0.00510252,0.000329494
0.00181457,-0.0099741,-0.000621289,0.00601506,-0.00283253,-0.00107193
-0.0119501,-0.00139326,0.0131599,0.00378823,0.00156724,-0.000412703
0.0379562,-0.00361731,-0.0154874,-0.0013299,0.00484303,-0.00636542
-0.011951,-0.00353058,0.0131758,0.000422955,-0.0111017,-0.00152111
-0.0141355,0.00500068,0.00349436,0.00345045,0.003261,0.00250471
-0.0247576,-0.00566298,0.00993632,0.00933945,-0.000525326,-0.000392199
0.0432869,-0.0100279,-0.0143589,0.00502282,0.0170342,0.00726104
-0.0236687,0.00288772,0.0130895,0.000840783,-0.0125438,0.00246739
0.00716145,0.0156602,0.000301533,0.00410056,0.00420982,0.00183439
-0.00775931,0.00926289,0.000285631,0.00464368,-0.00134894,-5.59092e-05
0.00175424,0.0103018,-0.0125075,0.00118852,0.00403893,-0.00142932
-0.00786797,-0.00358522,-0.0167267,0.000401378,-0.00503206,-0.00230384
0.0378529,-0.00578406,-0.0325677,-0.0021767,0.00925952,-0.000804543
0.00488909,0.00173688,-0.0220558,-0.00159854,0.00323379,-0.00057435
-0.0237865,-0.00248654,-0.00610869,0.00276107,-0.010227,-0.00116444
-0.00681034,-0.00679295,-0.0177694,-0.00106049,-0.00436565,-0.00124013
-0.014268,0.00816549,-0.0189627,-0.00485778,-0.0128662,0.00128818
0.0389899,-0.0036285,-0.0208234,0.00124526,0.0103004,-0.000919342
0.0102972,0.00923222,-0.00926193,-0.0105859,-0.00841412,0.0050621
0.0220851,0.00283539,0.00257528,0.00856572,0.00697964,-0.00063324
0.0156274,0.0017534,-0.00812646,0.00107396,0.00078389,-0.00352836
0.019856,-0.00146393,-0.0134315,-0.00672829,-0.00398538,-0.000567198
0.0241233,0.00921593,-0.0134872,-0.00341427,-0.00210106,0.000227451
0.0124335,0.00709681,-0.00817316,-0.00100613,6.93798e-05,-0.00187373
-0.00570112,0.00389928,-0.0114237,0.00335634,0.0056752,-0.00144064
0.0112881,0.000666204,-0.0209574,-0.000852287,-0.0134934,-0.00634599
-0.00468524,0.00708877,-0.0199895,-0.00121695,0.0128995,0.00408185
-0.0238643,0.00817157,-0.0200688,0.00220674,-0.00306696,0.000524163
-0.00472672,0.000668112,-0.026358,0.000898242,-0.00287223,-0.00226319
0.00908188,0.00385006,-0.0338078,-0.000193954,-0.00171405,-0.00169396
-0.00782636,-0.00998169,-0.00920521,0.00400853,0.00186515,-0.00303221
0.00290713,0.00605436,0.00248261,0.000295401,-0.00605801,-0.00106311
-0.00667039,0.00499704,0.00459059,-0.00050509,-0.00118336,-0.000736356
0.0103819,0.0124613,0.0046067,-0.00154877,0.00143909,0.00314033
-0.0246976,0.0125121,0.0183645,0.00310564,-0.00944367,0.00340772
0.00506414,-0.00568725,0.00790735,-0.0028652,-0.00167748,-0.00311232
0.0230772,-0.00359565,-0.009131,0.000749111,0.0115041,0.000228643
-0.0236901,-0.00138993,0.00991033,0.000622392,-0.00653216,-0.00145555
0.022035,-0.00785951,-0.00483489,0.00269282,-0.011241,-0.0022049
0.00607755,0.00497666,-0.00177309,0.00171041,0.00509498,0.000602365
-0.00993241,0.00177572,-0.00608417,0.00170356,0.0043695,0.00044775
0.0369158,-0.0174943,-0.0100577,0.00453246,-0.00618121,-0.00262737
0.341073,0.011256,0.06889,-0.0132004,0.00858971,-0.00104523
0.962458,0.0642436,0.096518,-0.000976443,-0.00957406,0.00959039
1.03926,-0.0700505,0.30068,0.026527,-0.098743,0.0297104
1.88739,-0.0508487,0.653115,-0.0171669,-0.0134985,0.0484982
3.54921,0.173455,0.749769,0.0215721,0.151057,0.00761163
8.61674,0.659711,1.23571,0.104021,0.0328727,0.212388
3.62234,1.74855,2.32434,0.0133905,-0.33233,0.0397276
2.7745,1.50439,2.21804,-0.013735,0.311649,-0.0750676
0.752881,0.84359,0.972146,-0.00238526,0.196814,-0.111719
0.0662846,0.191551,0.427827,0.0115502,0.07165,-0.0436262
-0.131474,0.044123,0.33402,-0.0199329,-0.0119756,-0.0309654
-0.181701,0.138862,0.122734,-0.0492753,-0.0251426,0.0304705
-0.239291,0.154599,-0.0656308,-0.0124237,0.0222535,0.0196879
0.137481,0.157396,-0.135824,0.00953017,-0.0267009,0.0054636
0.0870029,0.102847,-0.197629,0.0103948,-0.00452307,0.0136088
0.0766021,0.160914,0.0177836,-0.0128798,-0.0123886,-0.00894904
0.100276,0.0883387,0.0632156,-0.0034914,0.0195641,0.00978774
-0.0916565,0.070285,0.041247,0.010071,-0.0114916,-0.0103959
-1.20572,-0.136828,0.8483,0.0125705,-0.0263512,0.0572772
-0.282321,-0.0288788,0.0604046,0.0316688,-0.0176973,-0.00451529
-0.0747973,-0.00134009,0.0161287,0.00486702,0.0053471,-0.000669897
-0.165398,-0.0375946,0.0138879,0.00850125,-0.0048413,0.00164104
-0.00874388,0.00501515,0.0141993,0.000472784,0.00241408,0.000972927
-0.0386773,-0.000331239,-0.0019052,0.00174183,0.00363445,-0.00043273
-0.10901,-0.0291176,-0.000914009,0.00725384,-0.0178116,0.00260425
0.0029003,0.00498376,0.00142221,0.00469683,-0.00712597,-7.09891e-05
-0.0685462,-0.0174078,-0.00617925,0.0048701,-0.0120209,-0.00178874
-0.180205,-0.0215319,0.030826,0.00251566,-0.00218004,-0.00058496
-0.157844,-0.0258246,0.0287994,0.00411047,0.00816542,0.00112104
-0.0896455,-0.0034451,0.0278403,0.00385867,0.00330299,0.0014258
-0.0854121,-0.00986491,0.023624,0.00344948,-0.00532103,-8.34465e-05
-0.0120209,-0.0024821,0.00141409,0.00357817,0.00396273,-0.00100142
-0.110118,-0.0237894,-0.0084308,0.00965297,-0.00572538,0.000314176
-0.0534573,-0.00668825,0.0215866,0.00440101,0.00203538,-0.000883102
-0.0385377,-0.00242675,0.0216151,-0.00021477,0.00154734,-3.66569e-05
-0.00348901,0.0124652,0.00135139,0.00179435,-0.00118929,0.00012815
0.00718197,0.0060552,0.00463484,-0.000534818,0.00729913,0.00150985
0.0689902,0.0209635,0.00476979,-0.0013454,0.00743705,0.00100219
0.0060069,-0.00892952,-0.0123655,0.00338455,-0.00181639,0.000137925
0.00391423,0.00389955,-0.00711389,0.000327662,0.00141621,-0.00310606
0.0166436,-0.007875,-0.0155377,0.00175595,0.00554988,0.000907421
0.0114596,-0.00142007,0.00790533,0.00138551,-0.000889719,1.97887e-05
-0.0353112,0.00612329,0.0258467,0.00240578,-0.00477952,-0.000922084
-0.0226256,0.00928908,0.0087772,0.00153208,-0.00466198,0.00010097
0.0624652,0.0123842,-0.0165652,0.0020037,0.0122916,0.00041157
0.0805861,0.0262574,-0.016588,-0.000598684,0.00579926,-0.00221497
-0.00571874,0.00709849,-0.0146503,0.00217961,-0.00541997,-0.0045945
0.0432008,0.00917079,-0.0305086,0.000866607,0.00205728,-0.00332111
0.0197944,-0.0100269,-0.0229909,0.00148013,-0.00539923,-0.00147247
0.0390443,-0.010021,-0.0111654,0.00527169,-0.0022971,0.00172305
0.0294972,-0.00145736,-0.00484542,0.00665173,-0.00449246,-0.000165761
-0.00177079,0.00486716,-0.0669742,-0.0041247,0.00353903,-0.0184947
0.276437,0.0345951,-0.0511691,-0.00419107,0.0271003,0.0145155
-0.040893,-0.0291916,-0.0134788,0.00792152,0.00345591,0.00137705
0.0561433,-0.0110864,-0.00254831,0.0026727,0.00363192,-0.00268304
0.044424,-0.00787318,-0.00261274,0.00090827,0.00866634,-0.000495851
0.002912,-0.00996522,0.00472425,0.00144593,0.0006423,-0.00431705
-0.0120075,-0.00141075,0.00354532,-0.000500977,0.00298089,-0.00166118
0.0466786,0.0220669,0.015364,-0.00671226,0.00662363,-0.00138259
-0.00463564,-0.00891767,-0.0102688,0.00847985,-0.00217283,-0.0010668
-0.0268818,-0.00459074,0.0109886,0.00454733,-0.0021944,-0.000911117
-0.0268983,0.000744501,0.00774891,-3.33637e-05,0.000170231,-0.00154603
-0.00779069,-0.00249492,-0.00391157,0.0017394,0.00047186,-0.00181144
0.00283006,-0.00785356,-0.00917854,0.00364047,-0.00180122,-0.00154209
-0.00127278,-0.00887208,0.0175242,0.00010933,0.004199,-0.00733668
0.0209722,-0.00251831,-0.00487227,0.00266813,0.00427026,0.00203407
-0.00350464,-0.00569502,0.000398549,0.00189738,-0.00267529,0.00177902
0.0317047,0.0113813,0.00682959,0.000861675,0.00558841,0.00100708
0.0167319,0.00283149,-0.00171758,0.00288093,0.000330269,-0.000878096
0.00925723,-0.00357572,-0.00384111,0.00107902,0.00287426,0.000339746
0.00181352,0.000705885,-0.0017588,0.0033316,0.000197709,-0.00152469
-0.0109671,-0.00035028,-0.00073259,0.00475927,-0.00710043,-0.00228661
0.00396595,0.00498234,0.00142754,0.000843048,-0.00294283,0.00130415
0.00392,0.00283366,-0.00603945,0.00189847,0.00655657,-0.00110465
-0.00563145,0.00285217,0.000335071,0.00129281,0.00467741,-0.000711322
0.00827211,0.00392494,0.00892766,-0.00114323,-0.00402927,0.00514257
0.00820665,0.000701402,-0.0017355,0.00360356,-0.00251544,0.000518918
0.000720222,-0.00357315,-0.0060098,0.00321032,-0.00193435,-0.00215626
-0.0141941,-0.00996882,-0.00495667,0.00269765,-0.00369859,-0.000158012
-0.0077848,-0.00356143,-0.0028358,0.00331916,-0.00291505,-0.00122088
-0.00242837,0.00285111,0.00141666,-9.75132e-05,-0.00126427,-0.00137651
0.000745822,-0.00356587,-0.00173557,0.00369616,-0.00495559,-0.000294805
-0.00991708,-0.00569538,-0.00283175,0.00133985,-0.00193292,0.000299096
-0.00350044,0.00285084,0.00034249,0.000748575,0.00120625,-0.000993907
0.000665394,0.00175087,-0.0156602,0.00130661,0.00651649,-0.00215083
0.0508629,0.0199053,0.0025715,0.00556199,0.00303835,0.00276488
0.195169,0.0829445,0.0742918,-0.00161546,0.0117769,0.0046038
0.19849,0.0854265,0.273019,-0.0033424,0.00916386,-0.00200927
0.26357,0.108898,0.284864,-0.0194294,0.0393917,0.00450873
0.0529087,0.209855,0.505658,-0.00201412,-0.0122398,-0.00414354
0.0743518,0.149445,0.177046,0.00625268,-0.0275935,0.00140923
-0.00530035,-0.0603775,-0.116782,0.014323,-0.0265223,-0.00185102
-0.22276,-0.124635,-0.305226,-0.00128472,0.0121906,-0.000516653
-0.0876547,0.013289,-0.175265,0.00626613,0.0163166,-0.000819564
-0.0201283,0.080641,-0.114547,-0.0194698,-0.00814611,-0.0123848
0.0565231,0.148162,0.0466385,-0.0544911,0.0619904,-0.00343633
0.0735037,0.136692,0.214523,0.0397794,0.0239187,0.043845
-0.580984,-0.0447691,0.00810726,0.0200677,-0.046775,0.0282027
0.153157,-0.025029,0.00752165,0.0143139,0.0170506,0.0148019
-0.038568,-0.0376812,0.0197073,-0.0155214,0.0242928,-0.00489897
0.0189061,-0.0131777,0.006941,0.00173959,0.0128366,-0.00984079
-0.244268,0.0233358,0.00465165,-0.00190632,-0.0245582,-0.00412524
0.032694,0.0380592,-0.00829806,-0.00380214,0.005357,-0.00844038
0.121507,0.0829593,0.0505087,0.00743306,0.0959479,0.0375662
-0.0324459,-0.00465617,-0.0285634,0.0293272,-0.0664462,0.0464648
0.143774,-0.0452534,0.0439434,0.0108491,-0.0210403,0.00323504
0.109385,-0.0559935,-0.0041962,0.00151031,0.0187912,0.00945371
0.147816,-0.0260964,0.00537054,-0.00452481,0.0294363,-0.0024215
0.0050894,-0.0323821,0.0144938,0.00651811,0.010353,-0.0162176
-0.43984,-0.0493135,-0.0864278,-0.000931114,-0.0371882,-0.011166
-0.758384,-0.336452,-2.54746,-0.0152407,0.105218,-0.287211
-0.0336961,-0.640503,-0.18044,-0.0278576,0.110447,0.0348675
0.550453,0.659866,0.279159,-0.110924,-0.134087,0.316687
1.70737,0.431122,0.0841055,0.177703,0.260637,-0.32856
0.216061,0.140481,-0.000795803,0.0155779,-0.0310217,0.0191828
0.195041,0.316496,-0.146255,-0.0225542,0.0143234,-0.0312013
-0.0694591,0.27924,-0.185468,-0.00529031,0.00449067,0.00183612
0.0715717,-0.225936,-0.0758895,0.0424133,0.0281417,-0.00220317
0.297173,-0.143951,-0.131136,-0.000367679,0.0301543,-0.0182779
0.00273033,0.0487241,-0.0309162,-0.00403033,0.00151044,-0.014342
-0.103504,0.0862784,0.0186597,-0.00944473,0.016518,-0.016638
-0.0730307,0.199654,0.115268,-0.00663905,-0.0103695,-0.00437099
0.0303963,0.152292,-0.0464421,-0.00588797,0.0207814,0.00874674
-0.404721,-0.111298,-0.0880323,0.0196367,0.00317466,0.00491834
-0.196612,-0.0376641,-0.0385798,0.00384663,-0.0317869,-0.00110352
0.0356016,-0.157479,-0.0390708,0.0232576,-0.00221714,0.00685537
0.116569,-0.093461,-0.0466633,0.00483784,-0.0128977,-0.0334942
0.138152,0.0294267,-0.01212,-0.000935748,-0.0213796,-0.00264049
0.116897,0.0636365,-0.00601164,0.00134292,-0.0276141,0.0103824
-0.121532,-0.011943,0.041667,0.00834453,0.00200748,-0.0259306
0.0923494,-0.0164597,-0.0055843,0.003461,0.00807279,-0.00435948
-0.102613,-0.0216456,-0.000937369,0.000741988,-0.00558922,-0.019872
-0.0781056,-0.0718615,0.0037536,0.00337411,-0.00676262,0.00464272
0.0592812,0.0123913,-0.0144425,0.00441578,0.0078336,0.0027402
-0.0801328,0.00827312,0.0139112,0.00211646,-0.0227763,-0.0050953
0.00838617,0.0274546,0.0258716,-0.00237557,-0.0157398,-0.00153375
0.0391517,0.000691948,0.00585814,-0.000303179,-0.000759095,0.00384748
0.0786073,0.0241678,0.00905985,-0.000131935,0.0095081,-0.000647128
-0.201555,0.0276026,0.0197425,-0.000726044,0.0158717,-0.00322264
0.123318,0.00489704,0.00401092,-0.019265,0.0196486,0.016959
0.0273297,-0.0356427,-0.00783903,0.00130536,0.00526065,-0.0332511
0.109515,-0.0121671,0.0136864,0.00233594,-0.00642112,0.00633651
0.194583,0.00907962,-0.0171197,0.00662361,0.0206262,-0.0026114
-0.0802441,0.00290037,-0.00421783,0.00488489,-0.00974369,-0.00310844
-0.21996,-0.029074,-0.0237664,0.000646859,-0.0209518,0.0157098
-0.203279,-0.100753,-0.0787968,0.00539522,-0.0659761,0.00857091
-0.162099,-0.0247514,0.0298452,0.016335,-0.138029,0.0262942
0.340619,0.0752055,-0.0127275,-0.000242189,0.0680982,0.0113397
0.132865,-0.00473446,-0.0023029,0.00408649,0.00100416,-0.0101804
0.0988098,-0.0100372,0.00508387,0.00493816,0.00384229,0.000550091
-0.0642099,-0.0227303,0.00669439,0.00222883,0.0042991,-0.00405359
-0.228284,-0.0642552,0.0127591,0.0030672,-0.0364445,0.00746584
0.253267,0.0165352,-0.00412652,0.000795737,-0.0174414,0.0101065
0.0241587,0.00281675,-0.0070323,0.00142304,0.000495136,-0.00291783
-0.0216683,-0.0281242,-0.00593586,0.00254649,0.0109953,-0.00227213
0.0412876,0.0103037,0.00580458,0.00121314,0.0110056,-0.00176048
0.0562471,0.0177811,0.0122227,0.00122247,0.00292793,-0.000327528
-0.0109656,-0.0227783,0.00154898,-0.00118975,-0.00439352,0.00319982
0.023117,-0.000378998,-0.00274292,0.00067462,0.00877178,-0.00127614
-0.0429522,-0.000331993,-0.00405762,0.00375402,0.0115947,0.00159681
-0.010934,0.0017953,0.00459615,0.00137093,0.0127662,0.00300884
0.0891848,-0.00363156,-0.00140534,0.00218517,0.00230104,0.000459194
-0.00240983,0.00178908,0.00462772,0.00167767,0.00241777,-0.00459087
0.0998812,0.0145285,0.00386034,-0.00120242,0.0110971,-0.000680923
0.0231359,-0.00144284,0.000472052,0.00509555,0.00178547,-0.000304401
-0.0707023,-0.00352898,-0.0116196,0.00539958,-0.00871912,-0.00343794
-0.104752,-0.0761162,0.00261297,0.0116027,-0.0204889,0.0178255
0.082786,0.0358876,-0.0059565,0.00225253,0.00883812,0.00299245
-0.0867764,-0.0195637,-0.0254665,0.00625399,-0.00514755,-0.0204132
-0.0621117,-0.0366237,0.0025138,1.90139e-05,-0.0282294,0.024828
0.420724,0.0965614,0.0173509,0.0108725,0.0354512,-0.0115265
0.110898,0.0861847,0.0579275,0.00380697,-0.0305262,0.0141966
0.0108796,0.116963,-0.0997089,-0.033096,-0.0611227,-0.000120223
-0.475667,-0.104707,-0.0146181,0.0322164,-0.103563,0.0100425
0.23941,0.0176121,-0.00525412,0.00494092,0.00238475,0.0105958
0.00610531,-0.0291928,0.00592837,-0.00182716,0.000876039,-0.000171244
-0.0587871,0.00185939,0.0204429,-0.000729017,-0.0211396,-0.00326377
-0.125986,0.0264536,0.00614266,-0.0112099,0.00831884,-0.00521094
-0.181674,-0.0867979,-0.0307287,0.0143496,0.00304347,-0.0390577
0.148967,0.0294657,0.0146306,-0.00310785,-0.000192493,0.0108849
0.150966,-0.00475217,-0.00437106,0.00541402,-0.00277162,0.00282264
0.107371,0.0252118,0.00809394,0.00323297,-0.00141656,-0.0104336
-0.0110141,-0.0302685,-0.00588225,-0.000402451,-0.00191161,-0.00330466
-0.0205494,-0.0110212,0.00143743,0.00315112,-0.00620168,0.00127345
-0.000291621,-0.0110324,0.00364958,-0.00136606,-0.00221682,6.61016e-05
-0.0333976,-0.0323905,-0.00701961,0.00533533,-0.000756696,-0.00122029
-0.13023,0.0243256,0.00934677,0.000870742,0.000403047,-0.0213987
-0.00212328,0.0894519,0.0446613,-0.0045111,0.0557414,-0.000950098
-0.0770492,-0.0387557,-0.000731088,-0.000489101,0.0603101,0.000432849
0.104049,-0.0218159,-0.00870921,-0.00546986,-0.00704619,-0.00454921
0.0466644,0.00604109,0.0144016,-0.000683606,0.00479263,-0.000724375
-0.11126,-0.0366275,-0.0201047,-0.00366171,0.0264128,-0.0139717
0.000630756,0.00921713,-0.0221196,0.00307724,0.00633964,0.00071305
0.232155,0.0935075,0.0220071,0.00538591,0.00594899,0.00758219
0.107306,0.138406,-0.0129427,0.0020497,0.0153358,0.0368004
-0.581176,-0.0960897,-0.0193428,-0.00243478,0.0183893,-0.0107999
-0.323919,0.0138605,0.0492892,-0.00801212,-0.0792094,0.0414789
0.149552,-0.0753434,-0.0562728,0.00704424,0.0343286,-0.00347829
0.422761,0.07624,0.00360039,-0.000567198,-0.00146168,-0.0202561
0.0306063,-0.0163975,0.00380224,-0.00405213,-0.00776806,0.00513697
-0.234682,-0.0727957,0.0127898,0.0010127,-0.0729678,-0.0101799
-0.0630279,0.0958564,0.0155434,0.000613779,-0.0006181,-0.0210855
-0.062114,-0.0675995,0.00485571,-0.00294316,0.0699705,-0.00265658
0.133911,0.0198232,-0.00779895,0.0100192,-0.0524344,0.0190399
0.144647,-0.0228821,0.009612,0.00978521,-0.0228908,-0.00295359
0.124318,0.013421,-0.00779288,0.00388679,-0.00936794,0.00192565
-0.0461329,0.0317167,-0.00427838,0.000746891,-0.00718132,-0.000167966
0.00835251,0.0626906,0.0170942,-0.010257,0.02571,0.00470012
0.035877,0.023099,-0.00925493,-0.00751625,-0.0347723,0.0188977
-0.189905,-0.0365087,0.0137904,0.00200249,0.0194271,-0.0121071
-0.179256,0.000862789,0.00931392,0.00515068,-0.00065884,-0.0108899
-0.121791,-0.0301751,0.000115056,0.000727162,-0.0914342,0.0383254
0.103016,0.00596407,-0.005689,0.00286801,0.0778944,-0.0145497
0.0679578,-0.0025236,0.0123988,-0.00679417,-0.0228505,0.00446343
0.0764127,-0.0516793,0.00526869,0.00777675,-0.011797,-0.00197864
-0.123011,-0.173337,-0.0128506,0.0148749,-0.0156744,0.0103216
0.152048,0.0155452,-0.00343159,-0.00465554,0.0186212,0.00701845
0.100834,-0.0442469,-0.0096453,0.0063291,-0.0132492,-0.00254792
-0.0717035,-0.0793396,0.00596229,0.00116009,-0.00586611,0.00239062
-0.0769432,-0.0184319,0.015164,-0.000990927,0.0141134,-0.000531793
0.056124,0.0145413,-0.00805765,0.00462995,-0.00503567,-0.00337702
-0.103606,-0.0162832,0.0107768,0.00345492,-0.00432587,-0.00471294
-0.0343133,0.0242594,0.0129115,-0.00149342,-4.09484e-05,-0.00251526
0.112612,0.0305237,-0.00688133,0.000828505,0.00667965,0.001701
0.0263258,-0.0014459,-0.000586992,0.00267148,-0.00240535,0.00144804
-0.00454925,0.0103316,0.00242932,0.000201181,-0.00263056,-0.00164521
-0.114256,-0.00666179,0.0106753,0.00211555,-0.00770611,5.24521e-05
0.0188545,-0.00144471,-0.00275045,0.00494497,0.00237772,0.000662327
-0.0077732,-0.00569347,-0.000686366,0.00174028,0.00204352,0.00381005
-0.074859,-0.009903,0.00656917,0.00280887,0.00295219,-0.00261861
-0.0120196,-0.000346906,0.00140281,0.000683993,0.0178167,0.00178623
0.0273911,0.0103005,-0.00172525,0.00184205,0.00147718,-0.00239688
-0.0535452,-0.00350972,0.00660733,0.00206248,-0.00253367,-0.000805914
0.0305875,0.0102988,-0.00171478,0.000264108,0.0113946,0.000621676
-0.0290615,-0.0120789,0.00354855,0.00584152,0.000654429,-0.00717318
0.0167527,0.00604153,0.00146731,0.00195177,-0.00167638,0.00210226
-0.00668682,0.010332,0.00135154,0.00107402,-0.00189739,-0.000561416
-0.0482271,-0.00992505,0.00560105,0.00225317,0.000392437,-0.00268948
-0.0322645,-0.0120784,0.00246802,0.0027629,-0.00337601,0.000261843
-0.0322346,-0.00352574,0.00668732,0.00035581,-0.00448924,-0.000790834
-0.0343662,-0.00459239,0.00668635,0.00108144,0.000794321,-0.00323236
-0.0492762,-0.015259,0.00883563,0.00350513,-0.000453085,-0.00335425
0.0178049,0.0049689,-0.000658878,0.000144362,0.00675637,0.000636935
0.0177931,0.00710213,-0.00281088,-5.89192e-05,0.00443432,0.000832498
-0.032275,-0.00781019,0.0003053,0.000828698,-0.00121611,-0.00202376
-0.0226985,-0.00888922,-0.00178893,0.00394803,-0.00485155,-0.00455177
-0.0109613,-0.00141648,0.000342508,0.00251494,0.00151676,-0.000861287
-0.0205533,-0.00568131,0.000332636,0.00168803,-0.004704,0.00287151
-0.0237402,-0.0120852,0.00250092,0.00324835,0.00376627,-0.00117397
-0.0343918,-0.00459962,0.00241203,0.00203146,-0.00679046,-0.00148779
-0.0141765,-0.000351346,-0.00288207,0.00173585,-0.002379,-0.000408173
-0.0141647,-0.00248436,-0.000730536,0.000420034,0.00590011,-0.00262713
-0.00777153,-0.00248924,-0.000706378,0.00483951,-0.000751913,-0.00218743
-0.00345983,0.00713409,0.00672708,0.00105187,0.00231504,-0.00090301
0.00504467,0.00605413,0.0035601,0.000405863,-0.0061636,-0.00204736
0.00186556,0.00285803,0.00677323,0.00271322,0.000700414,-3.70741e-05
-0.0429075,-0.000318367,0.00342036,0.00154468,-0.00241995,-0.000461161
0.00712997,0.00390288,-0.00389681,0.00237356,0.00227815,-0.00218147
-0.0269633,-0.00141057,-0.00292175,0.00244686,0.00258154,-0.0012008
-0.031209,0.00607398,-0.000849846,-0.000463173,-0.00297654,-0.00146908
-0.00351326,0.00284729,-0.00179481,3.11583e-05,0.00452226,0.00122964
-0.028025,-0.00674923,-0.0018219,0.003593,-0.00356203,-0.000453055
0.0380485,0.00174891,-0.00056173,0.00255908,-0.00187045,-0.000184536
-0.00456754,-0.000353076,0.000359552,0.000575408,0.00199309,-0.00409007
-0.0109517,0.00499495,0.00136857,0.00123453,-0.00450939,-0.00264454
-0.00133459,0.00819864,0.00566006,0.000185475,0.00708622,-0.00179178
-0.0503576,-0.00885544,0.00558652,0.00104518,-0.0058068,-0.000916362
0.0327058,-0.00252311,-0.00269197,0.00231194,-0.000333071,-7.48038e-05
-0.0121081,-0.0110525,-0.0124192,-0.000343278,0.00683177,-0.0010739
-0.0334149,-0.0153056,-0.0114069,0.00094673,-0.00270927,-0.000456274
0.0560864,0.00278102,-0.013322,0.00150277,0.0067066,0.000764966
0.0231502,0.001766,0.00258706,0.00237478,-0.00229344,0.000170648
0.0700531,0.0156216,0.00480859,0.00132659,-0.000581145,0.00129962
0.0816979,0.00384136,-0.00682256,0.00322668,0.00684655,-0.00152081
0.0209855,-0.00144599,-0.00274313,0.000834942,-0.00299811,-0.00145531
0.049706,0.00278932,-0.0112086,0.00177602,-0.00226241,-0.00177163
0.0858359,-0.00153801,-0.0270732,0.00476179,0.0397953,-0.00228411
0.0794833,0.00275057,-0.0207137,0.0085987,-0.00989714,0.00291014
0.127402,0.0315429,-0.0282003,-0.000464782,0.0132828,0.000841677
0.0709511,-0.000449793,-0.0217927,-0.00174177,-0.000654966,0.00119561
-0.0344614,-0.0163691,-0.00819498,0.00198738,-0.00754535,0.000140846
-0.0333906,-0.0185043,-0.00710896,0.00397797,-0.000662893,0.00213951
-0.0673991,-0.0205893,0.00773626,0.00311416,0.00759003,-0.000600576
-0.0258594,-0.00140023,0.0034931,0.00058645,-0.00114194,0.00197572
-0.0322425,-0.00673263,0.00564058,0.00239977,-0.00357789,-0.00237584
-0.0205142,-0.00460295,0.00673866,0.00391793,0.00518608,-0.000719607
-0.0375282,0.000760391,0.0119819,0.000455275,-0.000333458,-0.0032261
0.0284533,0.00389103,-0.00168085,0.0026401,-0.00386417,0.0018124
0.0252642,0.00603159,-0.00063803,0.00207931,-0.000467181,-0.00158089
-0.0205185,-0.000332126,0.00564269,0.00141561,-0.00702649,-0.000861108
0.0657326,0.0134706,-0.00480749,0.00185493,0.0104965,0.00277662
0.0231203,0.00602981,-0.0027837,0.00358869,0.0107109,-0.000705838
-0.0120346,-0.00462301,-0.000707272,0.00232828,-0.00108224,-0.00208855
-0.0215941,-0.0078105,0.00461861,0.0021688,-0.00158685,-0.00256681
-0.109941,-0.00344576,0.0192187,9.5427e-05,-0.0123223,-0.00192773
0.00503726,0.00391566,0.00250597,-4.94272e-05,-0.0136993,-0.000103116
-0.0205308,-0.0120837,0.00464954,0.00343208,-0.00136563,-0.00960881
-0.112095,-0.00985919,0.0160475,0.00155036,-0.0150819,-0.000259936
0.0177944,-0.00357905,-0.0016708,0.00315288,-0.0174355,-0.00298858
0.0902009,0.0123731,-0.01112,0.00159349,0.010704,-0.00037235
0.00184022,0.00284937,0.00250195,0.00153656,0.00750291,-0.00436425
-0.00563351,-0.001421,0.000363623,0.00155066,-6.13928e-06,-0.00201243
0.0273952,0.00603012,-0.000630325,0.00612463,0.0154167,-0.0101323
0.014601,0.00283264,-0.00172462,0.00237033,0.00048697,0.00139928
-0.019477,-0.009952,0.00250306,0.00254771,-0.00283515,-0.000681043
-0.0120267,-0.00141594,0.000339084,0.00439323,-0.00343031,0.000426054
-0.00243648,-0.000354675,0.000367542,0.00161935,0.00229222,-0.00287533
-0.0152175,-0.0024797,0.0014021,0.00203675,-0.00457472,-0.00158066
0.00394389,-0.000363064,-0.0017457,0.00282316,-0.00573647,-0.000990868
0.0327116,0.0092272,-0.00276852,0.00185552,0.00486058,-3.60608e-05
-0.0109404,0.00179343,0.00352769,-0.000379875,-0.00455737,-0.00190693
-0.0120165,-0.00675363,0.00251158,0.003345,-0.00570512,-0.00161898
0.0337718,0.011361,-0.00384693,0.00148967,0.00610149,-0.000912964
-0.0215909,-0.00140152,0.00457745,0.00142808,-0.00168499,-0.000919044
-0.0130992,-0.00248525,-0.000726352,0.00307178,-0.00816265,-0.0014599
0.0252652,0.00816806,-0.000652068,0.00109991,0.00323766,-0.00251961
-0.0205623,0.00179201,-0.00185209,-7.36564e-05,-0.00123534,0.000207543
0.00607911,-0.004635,-0.000642785,0.00579472,0.0012528,-0.0076704
0.0114113,0.00390505,-0.000674971,0.00319184,0.0038555,-0.000971615
-0.0557039,-0.0206054,0.00350598,0.00457329,-0.00626442,-0.00145888
-0.00775567,0.00392427,0.00138767,0.00362025,-0.00360596,9.05991e-05
0.00609523,0.00177714,0.00145421,7.64579e-05,0.00478518,0.0006001
-0.015225,-0.00461795,0.000347492,0.00295997,-0.00360435,-0.00121975
0.0188816,0.00176733,0.00150262,0.00373466,0.00163835,-0.00497419
0.000753212,-0.00142726,-0.000681724,0.00134799,0.00637966,-0.000484824
-0.0161707,-0.0206028,0.0218166,0.0150005,-0.00583315,-0.0253045
0.0955152,0.0241137,-0.0143815,-0.00139296,0.00489712,0.00582039
-0.00989092,-0.00462008,0.00143593,-0.0018232,0.0102557,0.00240278
-0.0599618,-0.0120562,0.00343356,0.000970289,-0.011707,0.00254464
-0.0109426,-0.00247926,0.00355519,0.00139402,-0.00898045,-0.00142133
0.0465593,0.0134876,-0.00381246,0.00222893,0.00292307,-0.00132889
0.0327382,0.0113711,0.00149128,0.00196667,0.00445759,0.00148106
-0.0929518,-0.0056106,0.00967799,-0.000394046,-0.013898,0.00245708
0.0443985,0.00493574,-0.00803795,0.000300467,0.00694901,0.00262791
-0.00991323,-0.0110351,-0.00172724,0.00494319,0.0065437,0.00154763
-0.0940248,-0.0205642,0.00977027,0.00326782,-0.00973612,-0.0010094
0.0124993,0.0103188,0.00249333,0.000436276,0.0103615,0.00465637
-0.00881999,-0.0067558,0.00252309,0.00203168,0.000737131,-0.00177944
-0.0194487,-0.00460388,0.00674294,-0.00135571,-0.0100424,-0.00154138
0.00288431,-0.00142908,-0.000673259,0.00215095,0.000444055,0.00260377
0.0209994,0.0135103,-0.00177094,0.00279963,0.00996646,0.000917315
-0.029048,-0.0110077,0.00568007,0.00266923,-0.00037533,-0.00188124
0.010341,0.00710835,-0.00176772,9.40561e-05,-0.00251058,0.00323057
0.0124709,0.0049708,-0.00174684,0.00304368,0.00519699,-3.86238e-05
0.00288446,-0.00142988,-0.000671547,0.00104074,-0.00133935,-0.00190836
-0.0109425,-0.00247965,0.00355605,0.0015621,0.00452846,0.000346422
-0.0194637,0.00393652,0.00348121,-0.000392824,-0.00582072,-0.000879288
0.0114107,0.00283704,-0.000668427,0.00197968,-0.00483051,0.00144583
0.0210073,0.00390066,0.000427444,0.00204809,0.00444683,-0.00356251
-0.0130863,-0.00248196,0.00141152,0.000691772,-0.00162762,0.00385171
-0.0013689,0.00391775,0.000342889,0.00164214,0.00303984,-0.00204515
-0.0173512,-0.00781898,0.00142855,0.00362016,-0.00294572,-0.0027374
0.0231272,0.00709974,-0.00172188,0.00186096,0.00273997,-0.000855207
-0.0247843,-0.00780642,0.00567547,0.00203325,-0.00114331,-0.000564754
-0.00776581,-0.00355486,0.000367485,0.0056935,-0.00603777,-0.00118637
0.0114151,0.0113823,-0.000723251,-0.00100991,0.00738996,-0.0016104
-0.0567487,-0.00457743,0.0055339,0.00040178,-0.00439975,-0.00169277
0.00181717,-0.00463278,-0.000656671,0.00334322,-0.00524873,-0.000665903
0.0199275,0.000692348,-0.00169099,0.000688821,0.00436705,-0.00105178
0.00395409,0.00711576,-0.000724848,0.000710338,0.0044257,-0.00235623
-0.0311801,-0.000326223,0.00453476,0.00328317,0.00267959,-0.00260466
0.0231224,0.0103027,-0.00281159,0.00174968,0.00163293,-0.00226909
0.0145924,-0.00144173,-0.00276595,0.00068754,0.00717974,-0.00236619
-0.0194812,-0.00568148,0.00140775,0.00244582,-0.00156546,-0.00105262
0.0146152,0.00604197,0.000389342,0.00036557,0.000417441,-0.00264961
0.000760186,-0.000357471,0.000380382,0.00215283,0.000423551,0.0022518
-0.0162878,0.0135399,-0.000841818,0.00312696,0.00310564,-0.00108647
0.0401769,0.00922263,-0.00167029,0.00250839,0.00804716,-0.000436544
-0.0205483,-0.00888513,0.00142425,0.00175928,0.00253493,-0.00263917
-0.0396986,-0.00138598,0.00557781,0.00272308,-0.0035345,-0.00113273
0.0177911,0.00282869,-0.00278176,0.00176452,0.00766808,0.000204921
0.0145647,-0.00572196,-0.0070121,0.00183694,0.00200588,-0.000992537
0.00606017,-0.00464183,-0.0038455,0.00304091,0.00259531,0.000542402
-0.00349773,-0.00462492,0.00145999,0.00253066,0.00150105,-0.00245649
0.0401343,0.000665894,-0.00802566,0.00173064,0.000589311,-0.0017432
0.0699478,0.00918166,-0.0122431,0.00275317,0.00100636,-0.000851214
0.00925765,-0.00250691,-0.00384936,0.00293459,-0.00322318,-0.00026989
0.019936,0.00496739,-0.000651079,0.00125514,-0.000723779,0.00024724
-0.0216192,-0.00674968,0.000337658,0.00333191,-0.0022682,-0.00156981
0.00180789,0.00177102,-0.00283162,0.00402862,0.000447333,-0.0019443
-0.0162798,-0.0088866,0.00250897,0.0016526,-0.00141954,-0.000677705
-0.00669071,0.00285546,0.0013982,-0.000687599,0.00333488,-0.000110626
0.00820301,0.00604006,-0.00283763,0.00169936,-0.000168771,0.000397921
0.0220527,0.00175704,-0.00275829,0.00292292,0.00414151,-0.00175118
0.00609071,0.00497839,0.000368113,-0.000781134,0.00446823,0.0012641
-0.0226762,-0.00247428,0.00137452,-0.000298843,-0.00566769,0.000825584
-0.00989453,0.000718402,0.000334177,0.00202678,-0.00720236,-0.00192952
-0.00775972,0.00819407,0.000293887,0.00233126,0.00310373,-0.000139832
-0.00241507,0.00392312,0.00354646,3.08454e-05,0.00399369,-0.00211149
-0.0183943,-0.00140383,0.00458924,0.00177424,-4.1306e-05,-0.00054425
-0.0279643,-0.000323293,0.0077527,0.000692159,-0.0020858,-0.00774801
0.00500369,0.000701802,-0.00281566,0.00341578,-0.00215009,0.00198793
-0.0226654,-0.00674382,0.00354018,0.00191873,0.00201058,-0.000899553
-0.0226511,-0.00353542,0.00565614,0.00150472,-0.00111443,0.00221181
-0.00562232,-0.00462186,0.00252132,-0.0019334,0.00298744,-0.00234079
-0.0067082,-0.00676246,-0.000675447,0.00258061,0.00799495,-0.00137877
-0.0439728,-0.0131353,0.00457068,-0.00104263,-0.00403491,-0.00218004
0.0358773,-0.00146441,-0.00696152,0.00500137,-0.00687259,0.00274062
-0.00456693,0.000714718,0.000353484,0.00221333,-0.000339508,0.000678718
-0.00668051,-0.00248219,0.0035706,0.000223905,-0.00185043,0.000819564
0.0135422,0.00390412,-0.000668408,0.000403494,0.00196883,0.00176978
0.00715228,-0.00249852,0.000417914,0.000480145,0.000422478,-3.51667e-05
-0.00137838,-0.00249386,-0.000682789,0.00260065,-0.00272143,0.00217164
0.00610237,0.00284605,0.00251822,2.07573e-05,0.00405824,-0.00112242
-0.0440002,-0.0163465,0.000315706,0.00475103,-0.00432888,0.000621319
0.0114224,0.000704731,0.00148158,0.00288142,-0.00159946,-0.00238359
0.00289176,0.000709258,0.000381162,0.00141557,0.0030199,-0.000881851
0.01252,0.0135289,0.00542368,0.000772893,0.00405568,-0.00119317
-0.00457651,-0.0056964,-0.000927593,0.00628525,0.000798583,0.0022651
0.0550671,0.00599972,-0.00612245,0.00153717,-0.000272751,-0.000877976
0.022026,-0.000386233,-0.00727387,0.00264934,-0.00469896,0.000665307
-0.014112,0.0135514,0.00639085,-0.00213626,0.00500241,-0.000426888
-0.03864,-0.00245662,0.00426544,0.00178501,0.000725746,-0.00281662
0.0103602,0.00711407,0.00118302,0.000992939,-0.00234705,-0.00249398
-0.00349669,-0.00248835,0.00119141,0.000271738,-0.000919521,-0.00040251
0.0305861,0.00709308,-0.00194599,0.00264075,0.00322235,-0.000897527
0.00713748,0.00604082,-0.00309588,-0.00227338,0.00147194,0.00402308
0.0082248,0.0113868,7.83019e-05,-0.000651583,0.00283509,-0.00326633
0.0422559,0.00706911,-0.0104492,0.00279321,0.00518119,-0.00274235
0.00931481,-0.00355921,0.00552125,0.00126082,0.00465858,-0.00942743
-0.0184316,-0.012095,-0.000938265,0.0024288,-0.00626248,0.00118667
0.0603762,0.0198745,-0.0104657,0.000718996,0.0030483,-0.000479519
-0.0194987,-0.0152992,-0.000920726,0.00424246,-0.00269225,0.000854135
0.0039627,-0.00142655,0.00121416,0.00183579,0.00156561,0.000623643
-0.010944,-0.0056849,0.0033239,0.00144896,0.00431854,-0.000771463
-0.0365141,-0.0131408,0.004344,0.00221175,-0.00323761,0.000868201
-0.00990359,-0.00462443,-0.000954016,0.00249189,-0.00264373,0.00170571
0.0284549,0.0070953,-0.00195531,0.00207481,0.0049358,-0.00261593
-0.0194828,-0.00888562,0.00117322,0.00303462,-0.00387257,0.00257343
0.0039515,0.00177439,-0.000943725,0.00285445,-0.00316221,0.000871539
-0.000293918,-0.00355881,0.00228249,0.00107393,0.00109258,-0.0013029
-0.0301086,-0.00139397,0.00536112,0.000401825,0.00119865,-9.59635e-06
-0.0024374,-0.00249182,0.000128655,0.00224656,-0.00169313,-0.00291252
-0.00775971,-0.00462248,0.00119127,0.00159393,-0.00312203,-0.00114745
0.0145989,-0.00144027,-0.00195099,0.00353733,-0.000704765,-0.00193745
0.0188647,0.00603398,-0.00198367,-7.24494e-05,0.0036574,-0.00116628
-0.0237278,-0.000333679,0.00323991,-0.000165448,-0.000242591,-0.00117201
0.00819669,0.0060378,-0.00415959,0.00153728,-0.00737625,-0.00217098
0.0263111,0.00709294,-0.00409974,0.000682816,0.00399154,-0.000656843
-0.00456911,-0.00355784,0.000126353,0.00413337,-0.000914305,-0.00127107
0.0209877,0.00282652,-0.0030246,0.00203024,0.00289965,-0.00193006
0.0050259,0.00711745,9.19215e-05,0.00192794,0.00208521,6.85453e-05
-0.00883384,0.00392059,-0.00100599,0.00284235,-0.00440645,-0.00396538
0.0220622,0.00816868,-0.00198706,0.00169465,0.00570968,0.000381291
-0.00989247,-0.00782493,0.00120292,0.00311603,-0.00300062,-0.000230491
0.0231306,0.000691282,-0.000863754,0.000770643,0.00680256,-0.00153285
-0.0205365,-0.0110184,0.00332199,-0.000984147,0.000923812,0.000973523
-0.02373,-0.00460641,0.00326751,0.000861719,-0.00559664,-0.00185853
0.0209953,0.00496384,-0.001968,0.000974864,0.00461131,-0.00200629
0.00713849,-0.00463895,-0.00195885,0.00117239,0.00227821,-0.000848055
-0.0109462,-0.00995723,0.00335064,0.00200731,-0.00848389,-0.00247937
0.0103363,-0.00250593,-0.00195862,0.00289567,-0.000575185,-0.000460982
-0.0417998,-0.00564784,0.0106855,-0.00164877,-0.00803602,-0.000118077
0.0412063,0.0134828,-0.00835787,0.00295481,0.00148159,-0.00012517
-0.0120171,-0.00782182,0.00226415,0.00132646,0.0020988,0.000697851
-0.0130886,-0.00675376,0.00118277,0.00449292,-0.00269172,-0.00318581
0.0145993,0.0124447,-0.00311003,0.00121716,0.000706673,0.000894189
0.0114107,0.00283721,-0.000923161,0.00277534,0.000358224,-0.000809133
-0.0248103,-0.00888243,0.00115496,0.00352307,-0.00416571,-0.000686288
0.0177987,0.00496641,-0.00198036,0.00318155,-0.00231856,0.000592232
0.0231342,0.020986,-0.00200762,-0.00411849,0.00716025,0.00111008
-0.0471802,-0.00886347,0.00219701,0.00106819,-0.0101603,-0.000411987
0.00394779,0.00711341,-0.00198847,0.0010851,-0.00108218,-0.000630021
0.0263074,0.0124321,-0.00514477,0.00113392,0.012066,-0.000472248
-0.0226686,-0.00033652,0.00223398,0.00176062,-0.000146717,0.000642598
0.000773477,0.000714585,0.00231389,0.00202209,-0.00313264,0.000346541
0.0156697,0.00924114,-0.00195866,0.00156528,0.00277603,0.000411391
-0.0237432,-0.00567891,0.0011969,0.00146043,-0.00080204,-0.000800729
-0.0301237,-0.00566955,0.00330805,0.000859573,-0.000433832,-0.00171202
-0.00774638,-0.0035506,0.00337952,0.00324489,0.00321147,0.000437617
0.00394191,-0.00463664,-0.00191249,0.000796914,0.00183505,0.00123399
-0.0120363,-0.00782697,-0.000884034,0.00184193,-0.00489265,-0.00133389
-0.0216009,-0.00888136,0.00336259,0.00229315,-0.00238484,-0.000861406
0.0177847,0.00282678,-0.00404633,0.00222586,0.00513622,-0.0032286
0.0103564,-0.000362885,0.00128878,-7.08401e-05,0.00697806,-0.000722408
-0.0130895,-0.00889113,0.00125686,0.00228409,-0.0036239,-0.000364006
-0.00242665,0.00605507,0.00120101,0.00295426,0.00140733,-0.0012489
-0.0183714,0.00607895,0.00755033,0.00180009,0.00278977,0.000149131
-0.00244383,-0.0024935,-0.000882037,0.0021977,-0.00324887,0.000439644
0.0614662,0.00492855,-0.00496485,0.000653699,0.00716755,0.000683188
0.00607769,-0.00784055,-0.000816124,0.00108135,7.01547e-05,0.00159991
-0.0376148,-0.0195583,-0.000902886,0.00508019,-0.00325513,0.0017975
-0.0524656,-0.00137142,0.00854038,0.00484389,-0.00604892,0.000180304
0.000748035,0.000706462,-0.00195852,0.00418504,-0.0010668,0.00346768
0.0231173,-0.000380595,-0.0029357,0.000804439,0.0222645,-0.00246286
0.00392743,-0.00784442,-0.00402978,0.00126322,0.00208443,-0.00527763
0.00606226,-0.000368833,-0.00406988,0.000664115,-0.000549227,-0.00129431
-0.00882611,0.00605737,0.000109915,0.00301731,-0.00322762,-0.000207186
-0.0449981,0.00396688,0.0095999,-0.000476018,-0.0067986,-0.00308752
0.0220586,0.000690839,-0.00187939,0.00152023,-0.00685948,-0.00602549
-0.0163286,-0.00462949,-0.00626099,0.000208944,0.000971675,-0.00248128
-0.136745,-0.02697,-0.00656966,0.00657225,-0.00020355,-0.00109524
-0.0141354,0.0050001,0.00329939,0.00114033,-7.54595e-05,0.000742376
-0.00882738,0.0039221,0.000121386,0.00271583,-0.000760078,-0.00338292
0.0093084,0.00925547,0.0033592,0.00254557,0.00784791,-0.00025475
-0.0183853,0.00393901,0.00542688,0.00105205,-0.00112629,-0.00192136
-0.0131259,-0.00462887,-0.00518302,0.00271809,-0.0013465,0.000947058
0.0465215,0.00172805,-0.00927461,0.00385474,0.00388023,-0.000869632
0.0412264,0.00280938,-0.00395883,0.00224186,0.00211984,0.00125062
0.00500102,-0.00463912,-0.00297734,0.000530899,-0.00145954,-0.00148284
-0.0311978,-0.00994299,0.00226243,0.00273655,0.000446856,-0.000520706
0.0221013,0.00924695,0.00447731,0.00350624,0.00197911,-0.00162488
-0.000260487,-0.000344243,0.00766074,0.00287497,0.00325418,-0.00184816
-0.00774062,-0.0046164,0.00445376,0.00135204,-0.0038951,0.000537932
-0.0045679,-0.0014222,0.000172271,0.00244439,-0.00462288,-0.00153464
0.0316501,0.00388752,-0.00186269,0.0012368,0.00515109,0.000453591
-0.000324444,-0.0131791,-0.00187279,0.00450426,-0.00349346,-0.00136393
-0.0227182,-0.00996327,-0.00518302,0.00194217,0.00194722,-0.000333488
0.010326,0.00283251,-0.00407458,-0.0013466,0.00206196,-0.000695407
-0.0152531,-0.00996664,-0.00408736,0.00084734,-0.00401169,-0.00237805
0.0124548,-0.00144147,-0.00403975,0.000757262,-4.90546e-05,0.00151843
0.0156787,0.00176778,0.000226162,0.00331099,7.7486e-05,0.000617921
0.0763314,0.0027662,-0.013443,0.0049181,0.00823921,0.00381172
-0.0205167,0.0028717,0.00542733,0.0033225,-0.0136961,-0.000780821
0.00078363,0.00819363,0.00333426,0.000395566,0.00206262,0.000560343
-0.0152036,-0.000339716,0.00332926,-0.000638142,-0.0029617,-0.000477195
0.0146004,0.00176454,-0.00191409,0.0012947,0.00290954,-0.00178283
0.00607514,-0.000365637,-0.00193182,0.00126912,0.00282946,0.00014782
-0.0120294,-0.00675691,0.000177502,0.00338298,-0.000919878,0.000192642
-0.0322753,-0.00887945,0.000118304,0.00447774,-0.00297123,0.000776112
0.00395261,0.00391056,-0.000898948,0.00419325,-0.0013473,-0.000309587
0.00500905,-0.0014329,-0.00192917,0.000643864,-0.00048098,-0.000367999
-0.0387155,-0.0259761,-0.00620745,0.00373459,-0.00150144,-0.000775516
-0.0857944,-0.0591069,-0.036086,0.00951582,-0.0114479,0.00114352
-0.0998731,-0.116837,-0.0688848,0.014016,-0.00576347,-0.0281403
1.25891,-0.0515696,-0.0311,0.0237385,0.0830851,-0.0150085
1.73676,-0.207451,-1.00166,0.0709016,-0.0298225,-0.0521877
1.63321,0.215514,-1.0721,-0.0227029,-0.10385,-0.112411
1.38075,0.0106612,-1.04287,0.0900982,-0.000862628,0.0238971
0.85872,-0.0163828,-0.851258,0.0340675,0.131844,0.0549241
0.144816,-0.102357,-0.845895,0.0176691,0.165252,0.0755296
-0.811649,-0.370987,-0.939619,-0.0780945,0.139246,0.0348436
-1.01809,-0.476177,-0.707858,-0.125246,-0.0817115,0.0114917
-0.578739,-0.318021,-0.482865,-0.0236406,-0.198776,-0.0618456
-1.23162,-0.177223,-0.271464,-0.037753,-0.0419486,0.119325
-0.776762,-0.174841,0.0657179,0.11948,-0.106263,-0.0757236
-1.31732,-0.00792107,-0.00790569,0.0891419,-0.00152573,-0.0444295
-0.838867,-0.0442704,0.181098,-0.0250444,0.0279243,0.0706506
-0.284085,0.0662841,0.11301,-0.0570661,-0.0727316,-0.0344732
-0.302666,0.10065,0.209946,0.0144584,0.0481408,-0.00934178
-0.117576,0.0531141,-0.0155625,0.00895973,-0.036649,0.0072248
-0.304969,0.00202983,0.011847,0.00259801,-0.0110087,-0.00584555
-0.381048,0.0318672,-0.062354,0.0110257,-0.0276874,0.0173199
0.149372,0.025,-0.0955851,0.015975,0.0267234,-0.0375589
-0.072592,0.0189716,0.0264957,-0.0397754,-0.0032413,-0.00176531
-0.156335,-0.00860817,0.101153,-0.0159748,-0.00554371,0.00552338
-0.19609,-0.0172189,0.0465685,0.00209603,0.00781083,0.000163853
0.0962485,0.0368317,-0.0712838,-0.00212732,-0.00696981,-0.0014379
-0.120311,-0.0666799,-0.105615,0.0183893,-0.0124498,0.00320554
0.0434411,0.0167163,0.00878153,-0.00944832,0.00438249,0.0139207
0.05321,0.0423937,0.0364323,-0.00721866,-0.00473002,-0.0081715
0.00618649,-0.00780962,0.0173493,0.00867265,-0.00152284,0.0203442
-0.00886937,-0.00356693,-0.00623986,0.00200064,-0.0111841,0.0139691
-0.00675817,-0.00464152,-0.00943204,0.00353344,-0.00458187,-0.00219232
-0.00351465,-0.000358403,-0.00196786,0.00600414,-0.00525931,0.0111266
-0.0194576,0.00286886,0.00436325,-0.00610946,0.00448537,0.00232029
0.020983,0.00602861,-0.00405436,0.00131454,0.00367123,0.0039193
0.0188855,-0.00357244,0.00241092,0.00217891,-0.00186637,0.00453997
-0.00670045,-0.00462576,0.00018629,-0.00176555,-0.00248963,0.0022437
-0.00991943,0.00177843,-0.00414127,0.00214292,0.00244132,-0.00596547
-0.0120943,0.0039039,-0.0116435,0.00566114,-0.011868,-0.000957966
-0.0142189,-0.0089095,-0.00943059,0.00233196,-0.0020667,0.00346303
0.00180975,-0.00677125,-0.00190701,0.000353888,-0.00195369,0.00253487
-0.0131692,-0.0025074,-0.0126721,-0.00145286,-0.0014239,-0.0074451
0.0124503,0.0017601,-0.00512651,0.00943381,-0.00061658,0.00812489
-0.000301283,-0.00569755,0.00128707,-0.00131617,-0.00317043,0.000445485
-0.0141263,-0.00247366,0.00548507,0.00536789,-0.00362769,0.00417238
0.000796047,0.00712828,0.00548001,0.00602047,0.00250399,-0.0054096
-0.002451,-0.00463331,-0.00193332,0.00319883,0.00385839,0.00793278
0.00393665,-0.00250242,-0.00299413,0.00327508,0.00124186,0.000275433
0.0156837,-0.00143592,0.00131749,0.00255597,0.00213945,0.00267267
0.0113822,-0.00358061,-0.00509474,0.00273933,0.000329167,-0.00459415
0.00713071,-0.0078465,-0.00294601,0.00308263,-0.00745803,0.00562513
0.0764046,0.0081263,-0.00172166,-0.011349,-0.0058254,-0.014133
0.00292177,-0.00355522,0.00555714,0.0101549,0.00377303,0.00980675
-0.0152392,0.00498918,-0.00311422,0.00417244,0.00178653,-0.00194156
-0.00241078,-0.000347927,0.0044467,0.000430971,0.00450978,-0.00204444
0.00929415,0.00604646,0.00124457,0.0042575,0.00135738,0.00272202
-0.00777664,-0.000355917,-0.00198232,0.00308688,0.00309008,0.00359976
0.00183224,-0.000357115,0.00125816,0.00398605,0.000180125,-0.00323319
0.00823873,0.000710058,0.00341203,-0.000690356,0.00580552,-0.00140446
0.0124771,0.00390288,-0.000864231,-0.000743151,-0.000527412,-0.00215614
0.00394643,0.00390754,-0.00196493,0.00133976,0.00332576,-0.000207722
-0.0152208,0.00285714,0.00010767,0.00423431,0.00263745,-0.000522912
-0.00561317,0.000720444,0.00336009,0.000240639,0.00352311,0.00283551
-0.0109651,0.00285204,-0.000944716,0.00211222,-0.000400275,0.00233775
-0.00989578,-0.00248804,0.00016274,-0.000765488,0.00162095,0.000910759
-0.0130785,-0.000431193,0.00227383,0.00216515,0.00185758,-0.000410378
-0.0162769,-0.00362891,0.002281,-0.00163502,0.00406909,-0.0076046
-0.00564332,0.00383264,-0.0020006,0.00234036,0.00207114,0.00165105
-0.00776602,-0.00470669,0.00018182,0.000329196,-0.00468865,-0.00223994
-0.0109817,-0.00471042,-0.0030344,0.00338101,-0.00440168,-0.000129342
0.00392552,0.000616166,-0.00515116,0.00264607,0.00229454,-0.00603771
0.0146236,-0.00365222,0.00239713,-0.000913337,0.000242531,0.00119388
0.000782149,-0.00790999,0.00450792,0.00239301,-7.63237e-05,-0.00139761
0.0124614,-0.0015224,-0.00296948,0.000872657,0.00250795,-0.000112355
0.00288124,-0.00792086,-0.000826491,0.00442882,0.00216436,0.00215471
0.0103296,-0.00365892,-0.00295991,0.00177807,0.00194132,-0.00335819
0.00926557,-0.000453093,-0.00298563,0.00396097,0.00792134,-0.00130254
0.00397555,-0.00150513,0.00340999,-0.000933349,-0.00184163,-0.000895679
-0.00987406,0.00277719,0.00333217,0.00387867,0.000334203,-0.00366902
-0.00774478,-0.000428015,0.00335884,0.00669605,0.00405663,-0.000303149
-0.000291413,0.00170105,0.00230421,-0.00215091,0.00465497,-0.00444102
0.00182581,-0.000440709,0.00018922,0.00171381,-0.0029695,0.000512064
0.0103373,-0.000451007,-0.00191536,0.00275432,-0.00038749,-0.00403041
0.00181903,-0.00151157,-0.000870604,0.00291465,0.00569963,0.000977933
0.0049895,-0.00258948,-0.00512582,0.0010355,0.00202006,-0.00284028
-0.000310413,0.00169452,-0.000899177,0.00511076,0.00208515,-0.000849724
0.00396393,0.00062704,0.00126027,0.000132605,-0.00131595,-0.000637949
-0.0184774,0.0113064,-0.0106483,0.000974655,0.00622413,-0.0168002
-0.0194761,0.00384911,0.0011518,0.00580627,-0.00128126,0.00188631
-0.00989922,0.00383859,-0.000950024,-0.00883859,0.00376245,-0.0010035
-0.0141756,0.000632678,-0.00308044,0.00182419,0.00186658,0.000537694
-0.00457888,0.00169559,-0.00198304,0.00378051,0.00211269,-0.00274217
-0.013074,-0.00362878,0.00336002,0.00484775,0.00247887,0.00281042
-0.00140632,0.00489067,-0.00626643,0.000939682,0.000580579,-0.00158191
-0.0258602,-0.00361986,0.00331351,9.72152e-05,-0.00455707,0.00266337
0.015664,-0.00259197,-0.0018803,0.000177696,0.00427538,-0.00459862
0.0113732,0.00381041,-0.0072787,0.00411169,0.00370699,0.00245124
-0.000272147,0.00170615,0.00551063,0.00120829,0.00202522,-0.000365078
0.00821215,-0.00151601,-0.000847397,0.00139882,-0.000450641,0.00277567
0.0167513,0.00275415,0.00129369,0.00153413,0.00411183,0.00311267
0.00713276,-0.00365528,-0.00297456,-0.00133461,-0.00200999,0.00148654
0.00606842,-0.00151876,-0.00299097,0.00173217,-0.00227305,0.000881553
0.00821004,-0.00578887,-0.000819509,0.00575027,-0.00154129,0.00516051
0.0177874,-0.00443881,-0.00292921,-0.000812337,-0.00133812,-0.000136316
0.0700029,-0.00875024,-0.00163436,0.00222613,0.00388932,0.000520468
0.0262926,0.00836505,-0.00725285,0.00633152,0.00522846,0.00263625
0.0221115,0.00411944,0.00664942,0.00331143,0.00186515,0.00139475
-0.00884166,0.0009232,-0.00199353,-0.00152338,-0.00179371,0.00439101
-0.0226936,0.000933675,-0.00204565,0.00226726,0.001385,0.000686049
0.0114221,-0.000154671,0.00129487,0.00121933,0.00142702,-0.00368369
0.0348636,-0.000171493,0.00138114,0.00415695,-0.00282714,0.00294411
0.0135079,-0.00123773,-0.00616896,-0.000491545,-0.0012233,0.00124192
0.0124387,-0.00871429,-0.00612449,-0.00173324,0.000532508,0.00207907
0.00912592,0.0019348,-0.0265068,0.00156341,0.00527716,0.00347573
0.0729469,-0.00241725,-0.044404,0.00476663,-0.00651169,-0.00353712
-0.269629,-0.0137562,0.0430697,-0.026845,-0.0339094,-0.0108888
0.473688,0.0731425,-0.0327085,0.00334375,0.0762261,0.00590193
0.914091,-0.0808864,0.0393888,0.00296597,0.012849,-0.00697112
1.42327,-0.113352,0.0201374,0.0010829,-0.00554869,-0.00980908
1.25368,-0.0919129,-0.0105533,0.0125502,0.0262484,0.00731164
0.0655829,0.0467462,-0.0329983,-0.0341189,0.0805832,0.0456174
-0.0111167,-0.0311572,-0.0231654,0.0215105,-0.00448131,-0.00276411
-0.223825,-0.028746,0.0422676,0.00972627,-0.0379671,0.020353
-0.294403,-0.0234271,-0.0007687,-0.00388639,0.00677741,0.00102776
-0.323471,-0.018152,-0.0511291,0.00219458,-0.00785538,0.00560743
-0.417907,0.0322317,0.010162,-0.00591994,-0.0513489,0.0298518
-0.248951,0.0344172,0.111214,0.0291941,-0.0147935,-0.0104441
-0.193957,0.0374591,0.0419514,-0.0113201,-0.00536662,0.0057072
-0.24849,0.0652141,0.0073749,-0.0103376,0.00576021,0.0134052
-0.362435,0.0973601,0.015288,-0.012111,-0.0131796,-0.023539
-0.217374,0.0246674,0.0472895,0.0349042,0.00518486,0.00425839
-0.0424812,-0.0555236,0.079448,0.0403599,-0.002588,0.0015595
-0.17636,-0.0235828,-0.03879,-0.00602137,-0.00412238,0.00787115
-0.227434,0.017061,-0.0306953,-0.00359238,-0.00827241,0.00854534
-0.491317,0.0130946,0.0303121,-0.0199895,-0.0207158,-0.0100975
0.000856193,0.0255127,0.0139095,-0.00903896,0.0350005,-0.00525641
-0.0845184,0.00417754,-0.00657281,0.00317273,0.0174323,-0.00392938
-0.128237,-0.0214323,-0.00977504,0.00997263,0.00615421,0.00414538
-0.0792557,0.00201851,-0.0172236,-0.00758935,0.00902158,-0.00246
-0.112397,-0.000125465,-0.035496,0.00721575,0.00335535,-0.0016498
-0.0685076,0.00844512,-0.00226532,0.00769542,-0.00466564,0.00524569
-0.0621353,0.0052306,-0.00542691,0.0048034,-0.00306198,-0.0120094
-0.0460574,0.00310979,0.0106746,-0.0118426,0.0182407,-0.00415027
-0.0482108,-0.00330355,0.00750317,-0.00432148,0.0123884,0.00158131
0.0466081,-0.00444658,0.00572871,0.00401918,0.00852978,-0.00532919
0.144572,-0.00560625,-0.00458288,0.00369249,0.00948024,-0.00440633
0.15906,-0.0641735,0.10697,-0.0202239,0.00516713,-0.0125796
0.0749871,-0.0726243,0.124874,0.00821275,0.0060232,0.00480592
0.0274987,-0.0428605,0.0208632,0.0131765,0.0041883,0.00477487
0.0177417,-0.00658905,-0.0103929,-0.00171213,0.0105425,0.00210768
-0.000315282,-0.00762688,-0.000837714,0.0035462,0.00764829,-0.00139207
-0.0280782,0.00198886,-0.0116882,0.000945374,0.00332814,0.00291371
-0.03662,0.00519433,-0.0149465,0.00478639,0.00171351,0.00778651
-0.119761,0.0351529,-0.022931,-0.00277013,-0.00102976,0.0102207
-0.0695646,-9.58592e-05,-7.70963e-05,0.00520191,-0.00647327,0.00655222
-0.045073,0.00735797,-0.00324002,0.00400721,-0.00258586,0.00111252
-0.041896,-0.00653481,-0.00527465,9.17614e-05,0.00366274,-0.00282657
-0.00570724,0.00410599,-0.0126853,7.31722e-05,0.0020377,0.00236601
0.00179331,-0.00122624,-0.00514625,0.00682864,0.0041405,0.00148505
0.00927757,-0.00122424,-0.000844733,-0.00289588,0.000464439,-3.26037e-05
0.0231312,0.00196916,-0.000811862,0.00380512,0.00255391,0.00240499
0.0199692,-0.00549431,0.00563472,-0.000945672,0.00443122,0.000215769
0.0231226,-0.00230517,-0.00185329,0.00222535,0.00313559,0.002819
0.00716474,-0.0033541,0.00236793,0.00241967,0.00406274,0.00220925
0.0060896,0.00305222,0.000185282,0.00431374,0.000458181,0.000364304
0.0135685,0.00518905,0.00340383,0.00618762,0.00505236,0.00418139
0.219199,0.0221181,-0.000208961,-0.00264344,-0.000699133,-0.000172198
-0.00465634,0.00089821,-0.0148003,0.00110877,0.008894,-0.00287771
-0.0184186,0.000934029,0.000107632,-0.00256357,0.00276297,0.000508964
0.0530028,-0.00124621,0.00573067,0.00425294,0.0055455,-0.000118971
0.554951,0.0112179,0.0203513,0.00694876,0.0459095,-0.00247133
0.631658,-0.0230196,0.0219281,0.00769363,-0.00892597,0.0068332
0.288421,-0.0153266,-0.00291148,-0.0189936,-0.00140955,0.0127838
-0.025692,-0.0118228,0.0322167,-0.00176989,-0.00411355,0.00376326
-0.00461639,0.00411393,-0.00841022,0.00622771,-0.0028792,0.000717521
-0.0271139,0.00409476,-0.0287937,0.018045,-0.0103988,0.00137085
-0.225597,0.00308977,-0.0786797,0.00933985,-0.0142453,0.00186485
-0.385602,-0.0445931,0.0738213,-0.00976123,-0.0170098,0.00268531
-1.00088,-0.0880558,-0.00192533,-0.00766038,-0.0127306,0.0287505
-0.397083,-0.045892,-0.0640468,0.0380413,-0.0627296,0.0247188
-0.462157,-0.0458658,-0.0771116,0.0243586,-0.00155154,-0.0308841
-0.407505,-0.0532927,-0.0245047,-0.0137382,-0.00461724,0.00447249
0.113683,0.0296651,-0.00599502,0.00277318,0.0474009,0.00705743
-0.13501,0.0115707,-0.0762578,-0.00250375,0.0193815,0.0080471
0.102897,-0.0152218,-0.02391,0.0107289,-0.0209911,0.0119845
0.233038,-0.0174139,0.0011682,-0.00887133,-0.00880155,-0.00275707
0.261409,0.00198562,0.111197,0.0193275,0.0597999,-0.000570357
0.673624,-0.359986,-0.235363,-0.00104634,0.169397,-0.153365
1.18826,-0.639892,-0.032889,0.0764794,-0.0300549,-0.132831
0.750363,-1.25287,1.09559,0.142834,-0.182817,-0.0432185
-0.098753,-1.83028,2.23192,0.186408,-0.0224203,0.115047
0.750863,-0.906327,2.57315,0.0839468,0.00786981,0.141125
0.853083,0.146485,1.75468,0.0139982,0.146365,0.0340963
0.514196,-0.0699543,1.23021,-0.0263395,0.144354,-0.027056
-0.0205135,-0.0751508,1.08186,0.0191352,0.0649456,0.00425661
-0.630763,-0.0531115,0.59329,-0.0970468,0.120829,0.0449217
-0.486135,0.183801,0.524984,-0.0447004,0.0171292,0.0453127
-0.206584,-0.131991,0.262034,-0.0782452,-0.0998391,-0.10024
-0.0655163,-0.00550066,-0.0352876,0.0386429,-0.00360015,0.00320941
-0.0647398,0.0296589,-0.0867969,0.003185,0.0108376,-0.0254601
0.0300045,0.0712157,-0.104875,0.00338607,-0.0145898,-0.00929356
0.0987386,0.366545,-0.397151,-0.0270157,-0.0452317,-0.0376551
0.0267295,0.56187,-0.518354,-0.00746301,-0.0274224,0.00381333
-0.24525,0.777738,-0.583809,-0.000729695,-0.0638287,-0.071861
-1.52408,0.981125,-0.282204,-0.0724034,-0.0483788,0.0240898
-1.14792,1.17114,0.418874,-0.101275,0.204975,0.00945175
-0.350047,1.16865,0.565051,-0.00722864,0.0239699,0.00651115
-0.288028,1.01701,0.615415,0.032475,0.0287222,0.0299796
-0.402695,1.11014,0.675282,-0.0445809,-0.0117371,0.00126374
-0.328314,1.04167,0.647157,-0.0278301,-0.016153,0.0347524
0.119423,0.926489,0.338662,0.0127806,-0.0113299,-0.000208616
0.261586,0.780638,0.0708901,-0.00814289,-0.0229176,0.0387493
0.097228,0.642905,0.0380473,-0.00875437,0.0116473,-0.0289084
0.0519036,0.475713,0.313552,-0.0458165,0.0577208,-0.0388699
0.170537,0.38815,0.381877,0.0110998,0.0230352,-0.0339049
-0.0560696,-0.120276,0.307397,0.24847,-0.013997,-0.134838
-1.11204,-0.997287,-0.156712,0.217001,-0.205195,-0.0381655
-0.346802,-0.806627,-0.140126,0.434311,-0.313891,0.240127
-0.281943,-1.47557,0.966024,0.235063,-0.303277,0.281586
-1.36242,-1.7364,2.22764,0.164161,-0.172223,0.269174
-2.92955,-2.19057,2.66385,0.256266,0.281457,0.201101
-2.10468,-2.09049,1.6128,-0.130098,0.504767,0.363544
-0.897802,-0.810966,0.1944,-0.351871,0.431246,0.287722
-0.34494,-0.162991,-0.421022,-0.232974,0.274134,0.0988253
-0.276063,-0.0595548,-0.494089,-0.101245,0.0892534,-0.106501
-0.0890667,0.0298628,-0.591196,-0.0540571,-0.116992,-0.194947
0.063911,-0.0706026,0.0543006,-0.0764158,-0.246523,-0.0581975
-0.86319,0.065307,1.62698,0.137928,-0.245851,0.135749
-1.15378,1.02293,3.01507,0.204463,-0.0768385,0.0774206
0.20383,1.45526,2.82397,0.400138,0.00860125,-0.00873268
-1.66649,0.414878,1.43259,-0.0508481,0.00373468,0.0246665
-1.12075,0.115474,1.4932,-0.0922297,0.3,-0.169714
-0.504722,0.171039,1.15965,-0.210993,0.339097,-0.218233
0.786735,0.324901,-0.0908662,0.0831159,0.507332,-0.211638
0.271918,-0.42312,0.125696,0.107941,-0.0808854,-0.00478923
0.134268,-0.412082,0.26935,0.0139108,0.0545759,-0.0686368
0.492307,-0.0275392,0.41778,0.0274143,-0.0709422,-0.0659347
0.641114,0.0270231,0.530171,0.0128007,0.0533691,0.0175683
1.50663,0.322443,0.0229137,-0.035947,0.0314746,-0.0274878
0.437467,0.0768461,-0.387645,0.0230915,-0.0504637,-0.0359566
-0.245866,-0.207904,-0.419341,0.0290067,0.0107892,-0.00818181
0.679518,0.364018,-0.383257,0.060108,-0.00549865,0.031288
-0.0159119,-0.132615,-0.636933,0.0602657,-0.0789518,0.00992608
0.362457,-0.0249965,-0.627666,0.0847825,0.00099057,0.0539729
-0.409831,-0.373601,-0.562054,0.106157,0.0139167,0.0195594
-0.550704,-0.464032,-0.41348,0.0151382,-0.0183755,0.0294034
-0.83512,-0.41787,-0.405227,-0.080015,-0.0172749,-0.160118
-1.47344,-0.642457,-0.221321,-0.016708,-0.127933,-0.0550345
-0.61517,-0.495246,0.034159,0.00137287,0.030485,-0.0514371
-0.734798,0.041982,-0.0627253,-0.0446451,0.125605,-0.0149398
-0.805644,0.436612,0.170578,0.0596278,-0.0489998,0.098766
-0.332176,-0.0050453,0.0961481,-0.00423631,0.0119927,-0.0078249
-2.53421,-1.47828,-0.956033,-0.135948,0.429369,-0.388331
1.11342,-1.65937,-3.36765,0.0881434,0.231487,0.112151
2.26264,-1.35812,-3.47214,0.0426235,0.122502,0.0624194
-1.76858,-0.191165,-3.11123,0.0342382,-0.197399,0.176549
-2.864,1.50943,-1.13905,-0.0300214,0.122553,0.167864
-1.43061,1.65141,-0.570458,0.0399275,0.0622267,0.0356014
0.37087,1.45958,0.467515,-0.0988061,0.0255815,-0.0696603
0.0141005,1.36592,0.505248,-0.0473574,0.114652,0.167481
-0.102374,1.49207,-0.0964709,0.0088436,0.039508,0.147077
0.779706,0.841498,-0.955462,0.195123,0.141769,0.146517
0.875646,0.245607,-1.42884,0.362823,0.0342046,0.113093
1.14444,0.0428707,-1.18505,0.218419,0.110301,0.188628
0.706529,-0.0751681,-0.459375,0.124783,-0.0864379,0.0329111
0.501467,-1.71473,0.14134,0.152471,-0.238739,-0.123611
-0.173808,-3.89823,1.62743,0.302444,-0.316289,0.0211107
0.521039,-4.1077,3.09409,0.184802,-0.102499,-0.047823
2.21816,-3.17754,3.6842,-0.172552,-0.0660284,0.197969
1.3689,0.190299,3.19548,-0.120802,0.077184,0.400926
-0.38921,0.498281,2.62917,0.0436728,-0.0307832,0.0778079
0.789101,0.469713,2.0739,0.0276079,-0.0449777,0.0289048
2.47472,0.699396,0.981423,0.00910886,0.285189,-0.0238955
0.213097,0.116221,0.0407761,-0.0211077,-0.379377,-0.0266445
0.307943,-0.00698217,-0.12368,0.0438965,-0.0830472,-0.00055486
0.54704,-0.0686739,0.130838,-0.0160851,0.0914757,-0.00555676
0.299582,-0.0763509,-0.090139,0.119172,0.111804,0.00540447
0.301293,-0.022005,-0.165276,-0.043235,-0.0117,-0.0365338
0.0637961,-0.131043,-0.315044,0.0923785,-0.204372,-0.00618327
0.105167,-0.0047887,-0.178945,-0.00786942,0.0198178,-0.002689
-0.250207,-0.449745,-0.0545182,0.0356354,-0.0127051,-0.184499
0.22213,-0.206497,-0.0233415,0.044152,-0.075977,0.065384
-0.654838,0.0695701,0.476963,-0.0345237,-0.167227,0.193889
1.06664,0.616507,0.00760363,0.000525728,-0.24064,0.243554
0.274538,0.383835,-0.22143,-0.00251187,-0.0147668,-0.0506248
-0.490732,0.0450206,-0.0522156,-0.0678032,-0.018754,-0.00769234
-0.163419,0.0768736,-0.0212806,-0.00899364,-0.000867844,-0.000638127
-0.241046,0.00648734,0.0109379,0.0173502,0.00269842,-0.042642
-0.36587,-0.129106,-0.00360731,-0.00222929,0.0136046,0.0184799
0.000630016,-0.0343375,-0.0178091,-0.00377977,0.0315325,-0.0109481
-0.308423,-0.197531,-0.0125651,0.0420977,-0.00525564,-0.0127872
-0.223024,-0.12599,0.00759011,-0.00249448,0.0131912,0.00774539
-0.0332241,-0.059874,0.0249675,0.00563714,0.000914097,0.025034
-0.096886,0.0716218,0.058066,-0.0154881,-0.0132951,0.0333629
0.201355,0.0735023,0.041008,0.0492438,0.0109781,-0.0411404
-0.0704861,-0.0737221,0.0313301,-0.0352646,-0.00275189,0.00365144
0.141421,0.00404713,0.0027702,0.003627,-0.000592947,-0.0166869
0.37373,0.103208,-0.00127769,-0.00582378,0.0539777,-0.00822604
1.71943,0.20578,-0.0161353,0.00860083,0.116821,0.0313344
2.58846,0.445618,0.0699735,-0.0218774,0.0202835,0.0805295
1.55149,0.179324,0.0539251,0.0114653,-0.0200338,-0.0259218
0.5296,-0.0217817,0.0610192,0.008398,-0.0105953,-0.00382149
0.552854,0.0251406,0.0255414,-0.00127725,0.021695,0.0187414
1.65461,-0.0675402,0.0366808,0.0253928,0.116357,-0.0585469
1.3322,-0.037571,-0.0694311,0.0154027,-0.0929461,0.132265
0.0483541,0.0915896,-0.0665274,-0.0244011,0.0609124,-0.0019682
-0.892847,0.116004,0.049458,0.0131065,-0.0839821,0.0316331
-3.46649,-0.204103,0.360293,-0.0414504,0.0953017,-0.113741
-0.458585,0.0108726,-0.0187528,-0.0735459,-0.0370836,0.0488833
-0.217618,-0.0213036,0.0112066,-0.0185846,-0.034667,-0.00550616
-0.105705,-0.0192413,0.0169533,0.0103519,0.00133175,0.00795847
-0.0439545,-0.0182342,0.00863015,0.0144711,0.0146571,0.00231373
0.0167976,-0.0225463,0.0120896,0.0280553,0.0119837,0.00116771
0.0348926,0.0030666,0.00665083,0.0283292,-0.000163555,-0.010377
-0.00665995,-0.00330905,0.00760399,0.0182707,0.00993007,0.010105
-0.0183641,-0.00863679,0.0108025,0.0185748,-0.00962603,-0.00673932
-0.015167,-0.00757064,0.0108068,0.0183104,-0.0129895,-0.000669956
-0.0450657,0.00524933,-0.00114071,0.00874619,0.00280565,0.0128045
-0.0216635,0.00308422,-0.00744983,0.0127126,0.00599265,-0.00100368
-0.00991511,-0.00545995,-0.00201,0.00607358,0.000527799,-0.00327444
-0.00356661,-0.00547811,-0.00946459,0.000724427,-0.00119972,-0.00407505
-0.0408367,-0.0353485,-0.00299957,-0.00279418,-0.00671065,-0.00189883
-0.0440552,0.0233898,-0.0119405,-0.00852372,0.0130767,0.017549
-0.0418427,-0.00542467,0.00428063,0.0154463,-0.00825089,-0.00530857
-0.0173507,0.00202752,0.00112123,0.0138429,-0.00696439,0.000282288
-0.0259151,-0.00118061,-0.00530338,0.000447802,0.0014146,0.00535393
-0.0184574,-0.00332286,-0.005261,0.00087662,0.000474453,-0.00344151
-0.0173796,0.00842816,-0.00426433,-0.0018381,0.00259471,0.00765121
-0.0141772,-0.00545698,-0.0020255,0.00489466,-0.00576556,0.0066089
-0.00778619,0.00308218,-0.00312596,0.00107996,0.00404257,0.00282061
-0.00886028,0.011625,-0.00532265,0.000189684,-0.000706315,0.00201952
0.0785868,0.133337,-0.00364743,0.0155182,0.00194955,0.0118048
0.19179,0.133461,-0.494711,0.0969621,0.0968956,-0.00888282
1.53457,0.389913,-0.477456,-0.250828,0.334687,-0.0448357
0.296926,0.35009,-0.572649,-0.0294288,-0.00961179,0.186851
0.797815,0.0137989,0.365231,0.122324,-0.409487,0.0665385
0.0519777,0.17533,0.175482,-0.097499,0.0696657,-0.0346478
-1.1192,0.0434121,-0.0225061,0.00138068,-0.0769726,-0.000840664
0.235157,0.2368,-0.0229623,-0.0233439,0.00806886,0.0426021
-0.0706867,-0.0139688,-0.00752565,0.0326375,-0.0883018,-0.0668519
-0.413971,-0.0992075,-0.0317653,0.0294447,-0.0247481,-0.0380179
-0.162219,0.013899,0.0069094,-0.009399,0.0355213,0.0492759
-0.192292,-0.00323808,-0.0315537,-0.00950264,0.0167848,-0.0330405
-0.200833,0.0416224,-0.0382896,-0.0156603,0.0557848,0.0263666
-0.0876184,0.0277309,0.00816853,0.0379988,0.0308086,-0.0279417
-0.0407281,0.0159492,0.0105578,0.0168745,0.00314355,0.0484407
0.0295563,-0.0396525,0.00904275,0.00182702,0.00803971,-0.00688958
0.166984,-0.0408321,0.00529296,0.00140902,0.0127751,0.00766379
0.38436,-0.0634214,0.00945839,0.00880459,0.00405824,0.000623226
0.175399,-0.0419382,-0.0128323,-0.00445029,-0.005696,0.0159152
0.104164,0.0265154,0.0067572,-0.00551412,-0.000487268,0.00307083
0.212998,-0.0311967,0.0374562,0.0141225,0.0734845,-0.0331664
0.00826493,-0.0139984,0.00986608,-0.0520311,-0.105655,0.0527403
0.0693714,0.0640314,0.0651477,0.0101031,0.0765597,-0.0347866
-0.0515668,-0.0182728,-0.0170421,0.0129909,-0.0368611,0.0320767
0.000747012,0.00841915,-0.0020613,0.000411682,0.0237678,-0.0115925
-0.0312397,-0.0460329,-0.00075955,0.0125648,-0.0186968,0.00310183
0.0221265,0.00521848,0.00979376,-0.00313189,0.000140667,-0.0104246
-0.0184218,0.0297967,-0.00227017,0.00710091,0.00222707,-0.00424004
-0.0387309,0.0169774,-0.0118804,-0.0150735,-0.0009951,-0.0045048
-0.0418805,0.00844876,-0.00328851,-0.00885722,0.00923681,0.00379169
-0.0355513,0.00842546,-0.0139494,-0.0125903,-0.0022518,0.00479257
0.0274664,0.00414966,0.0119583,-0.0025648,0.00843453,-0.0260897
0.0103549,-0.00653547,0.00234581,0.00645687,-0.00401008,0.000473082
0.00714984,-0.0108078,0.00129335,-0.00624435,-0.00354844,0.000873864
0.00715686,-0.00973828,0.00235593,-0.00135886,-0.00372237,-0.00217307
-0.0109574,-0.00972328,0.00228498,0.00343396,-0.00472188,0.00370789
-0.00561472,-0.00545152,0.00441579,0.0035466,-0.000416338,0.00412369
-0.0354716,-0.0235912,0.00228264,-0.00573006,-0.00364184,-0.00519419
-0.0173676,-0.00545165,-0.000971309,0.00221153,-0.00196648,0.00610828
0.0146399,0.000944327,0.00551861,0.0168841,-0.0113901,0.0143172
-0.106798,0.0277469,0.0080932,-0.00481448,-0.00782496,-0.0166045
0.0369452,-0.0129774,-0.00499247,-0.0184625,0.0125809,0.00773674
0.0130444,-0.158792,0.28755,0.0488553,-0.00694048,0.0490826
-0.348043,-0.0402434,0.118752,0.0100257,-0.0190599,-0.0410018
-0.466564,-0.234165,-0.261872,0.0363891,0.0707238,-0.0949663
-0.334985,-0.549494,-0.32451,0.0637316,-0.0628734,0.0100372
-0.232082,-0.539781,-0.222684,0.0343898,-0.0103092,0.0305085
-0.190152,-0.439618,-0.347118,0.00603479,0.00131732,0.0678368
-0.0326425,-0.0873384,-0.409714,0.0197901,0.00880724,0.0986157
0.0105905,0.258541,-0.516502,0.0229421,0.04108,0.0450086
-0.659109,0.244687,-0.787101,-0.00690165,0.0695058,-0.0469216
-0.949212,0.0479921,-0.995258,0.0338085,-0.0290986,-0.045343
0.00444857,-0.118711,-0.618786,0.0634623,0.0177014,-0.0566531
0.166993,-0.0620554,-0.525591,-0.0420268,0.0231734,0.048869
-0.559884,0.0951254,-0.751569,0.00156832,0.00773209,0.0270723
-0.719829,0.184927,-0.779461,0.0145874,-0.0225922,-0.0207422
0.0405352,0.170971,-0.490179,0.0211056,-0.04521,0.0166541
-0.199579,0.126808,-0.192694,-0.0389281,-0.0758022,-0.0526895
-0.0186159,0.0579553,-0.393508,-0.000553727,0.0989095,-0.0342522
-0.305428,0.0829923,-0.249434,0.0561076,-0.0475636,0.044284
-0.287958,0.330443,0.155036,-0.0224391,-0.0372983,0.0485057
-0.369618,0.451305,0.208439,-0.0241097,-0.0142039,-0.0120502
0.584357,0.31046,0.100736,0.0255487,0.0345677,-0.0385594
-0.111796,0.125038,0.0544569,0.0116091,-0.0158205,-0.0581488
0.117182,0.120562,0.0371783,-0.00477767,0.00942653,0.0292821
0.104845,0.187989,0.106145,0.00739032,-0.0232028,-0.00770384
0.656994,0.0751787,-0.0256804,0.0201132,0.018131,-0.00540888
0.00515397,0.0298192,0.0202534,-0.00559282,-0.0133677,-0.0288156
-0.0851248,0.0118156,0.0702489,0.00102085,-0.0252497,0.00850868
-0.00558013,0.0255318,0.00742008,-0.010147,0.000292778,0.0230947
-0.00558028,0.0255326,0.00741837,0.0047434,-0.0280377,-0.0188544
0.0498753,0.0319131,0.0150642,-0.00174934,-0.00528467,0.0119183
0.151212,0.0884755,0.028967,0.000126064,-0.0037902,0.00660217
0.0106248,0.0608305,0.041441,-0.000997722,-0.0114377,-0.0159633
0.12876,0.0639062,0.0183557,0.00674981,0.00531328,-0.010195
0.252353,0.0723541,0.0166293,0.000117004,-0.00520504,-0.00123382
0.380457,0.196222,0.0462212,-0.0100259,0.0255556,0.0321724
0.525577,0.410538,-0.115961,-0.016389,0.0501714,0.0588294
0.0588706,0.364961,-0.114208,0.00612217,-0.0146303,-0.028134
-0.0598972,0.101411,0.00458724,0.0118272,-0.0474262,-0.0655258
-0.116201,-0.0213229,0.0436384,0.00684798,0.000986099,-0.0091961
-0.00671444,-0.00973229,-0.000903951,-8.63075e-05,0.00406319,-2.89083e-05
-0.0212324,0.0480697,0.0606364,0.00237799,-0.0259491,0.0107856
0.161533,0.0456489,-0.0230715,-0.000471592,0.0554579,-0.0131078
0.0114831,0.0426129,0.00843967,0.00871146,-0.00786173,-0.00200367
-0.0118932,0.0202214,0.0213176,-0.00138795,-0.00317937,-0.000484943
-0.0023996,0.0447499,0.00303264,-4.10676e-05,0.00267565,0.000501573
0.00497653,0.0457885,-0.0108367,0.0139139,-0.0132405,-0.00633389
0.00720601,-0.0257424,0.0120716,0.00140572,0.00730634,-0.0171347
0.0338257,0.0137492,0.00550552,-0.00112677,0.00208241,-0.0085156
-0.0195382,0.0564854,-0.0131355,-0.00246799,-0.0105091,0.00583869
-0.0260587,-0.0065609,-0.0287785,0.00790191,-0.012526,-0.0112066
0.0582604,0.0863369,-0.0130386,-0.00832888,0.00923294,0.0273122
0.575684,0.184084,-0.0907991,0.00219262,0.0132884,0.0316127
0.696897,0.191394,-0.1342,-0.00284314,0.000114113,0.0145864
0.112056,0.10643,-0.105923,0.00213924,-0.0240723,-0.0198594
0.111233,0.0659146,-0.0618545,0.0103383,-0.0279224,-0.0100135
-0.0420043,0.0169582,-0.0247156,0.00239915,-0.0459079,-0.00875223
0.0931627,-0.00316897,0.129776,0.00811899,-0.033083,-0.0111382
-1.15059,-0.219887,0.276108,0.0178989,-0.0535056,-0.044916
-0.700764,-0.318746,0.1374,0.00751871,0.0267482,-0.00787902
-0.019315,-0.059866,0.0346322,-0.0304926,0.0317867,0.0797272
-0.237812,-0.096034,0.0265696,-0.00463492,-0.0140183,-0.0250612
-0.31973,-0.250801,0.0614563,0.0104588,-0.0152217,-0.040794
-0.305367,-0.10572,-0.0441397,-0.0206703,-0.0181683,0.0429122
0.0818662,0.0692781,0.0160094,0.00999904,-0.0457581,-0.0144744
-0.0640651,0.0469717,0.025225,-0.00635713,-0.00828135,0.00934476
0.0261601,0.0222401,-0.0298399,0.0065802,0.00608736,-0.00595903
0.124436,0.00514964,0.0133778,0.00901616,-0.0207834,-0.0116156
0.0839024,-0.01833,0.00803687,0.00853449,0.00213015,0.0011462
0.103962,0.0189817,-0.0263196,0.00492102,-0.000431299,0.00360191
0.0197414,-0.00339592,-0.0318336,0.00913128,-0.00895846,-0.00262737
0.199799,0.0648175,-0.0401472,0.00159132,0.00805283,0.0151004
0.249731,0.0754177,-0.0656727,0.00872064,0.0033797,-0.0148669
0.208264,0.125673,-0.0554692,0.0162443,-0.0102431,0.00991023
-0.253906,0.00113776,-0.000833415,0.00942689,-0.0739564,-0.0319797
-0.00218604,-0.0395627,0.0463177,-0.001674,-0.0125458,0.00980401
0.184996,0.0637944,-0.0209646,0.00204289,0.00558227,0.0116899
-0.110892,0.0459563,0.0346703,0.0164292,-0.0270616,-0.058381
0.14766,0.0285638,-0.0251482,-0.0160066,0.0368981,0.0454261
0.0857687,0.0531501,-0.0426373,0.0114661,0.0170941,0.0271101
-0.0970397,0.0715789,0.0324192,-0.00297648,0.00738961,-0.0223751
0.174267,-0.0579745,-0.0223541,-0.0148107,0.0622854,-0.00403547
0.0176831,-0.0375518,-0.0166588,-0.0128592,0.0187154,0.0245843
-0.0290023,-0.0246416,0.0151347,0.00795579,-0.00832713,-0.0113744
-0.037467,-0.0203451,0.0246899,0.00356147,0.00100225,0.000279903
0.030563,0.00946063,-0.00516442,-0.000449836,-0.0105439,8.22544e-05
0.177718,0.0147228,0.0135165,0.00121248,-0.0154296,0.00239241
0.211622,-0.0248755,-0.0149495,-0.00230169,0.0500427,-0.0207609
0.0464101,-0.0322444,-0.0240669,-0.0017992,0.0221447,0.000932693
-0.010973,0.0361986,-0.00442514,-0.00218907,-0.00720698,0.00773317
0.0956025,0.0809822,-0.00431506,0.000815302,-0.000862658,0.00791478
0.586243,0.157347,-0.104477,-0.00321066,0.043892,0.00624418
0.599036,0.144523,-0.102209,-0.00238818,-0.01765,-0.00416297
0.333915,0.0892408,-0.0654466,0.00568569,-0.0137026,-0.0183887
-0.104697,0.0202616,0.00387353,0.0133915,-0.0232004,-0.041527
-0.225909,-0.129099,0.0599498,0.0116121,-0.0562734,-0.0475314
-1.19502,-0.27027,0.155534,0.0137521,-0.0298518,-0.0388203
-0.543249,-0.236676,0.100058,0.000568271,0.0472507,0.00441468
0.0551416,-0.0268504,0.0101216,-0.012834,0.0361145,0.0199866
-0.0867339,-0.001157,-0.019426,0.00458783,0.00342935,-0.0199212
-0.46384,-0.124741,0.00560754,0.0129059,-0.0304517,-0.0241213
-0.0610062,-0.113275,0.0166563,0.000400722,-0.00495028,-0.0041402
0.0486843,0.0115865,-0.00404437,0.00433159,0.00612825,0.0143973
0.0401011,0.0724526,-0.019427,-0.00365394,-0.0081203,-0.000362873
0.296905,0.106441,-0.0197549,-0.00360259,0.0360605,-0.00664675
0.169992,0.0691209,-0.0360146,0.00256267,0.00491947,-0.0126785
0.0688952,0.0201059,-0.0104352,0.00229222,-0.00875282,-0.0245804
0.0177942,-0.00654528,-0.000834556,0.00135547,-0.00254703,-0.0046984
0.0870622,0.0104943,-0.000686637,0.0046199,0.00566953,-0.0106872
-0.0279955,-0.0139783,0.00438292,0.00321516,-0.0162271,-0.0141243
0.0688724,-0.000194263,-0.0124389,-0.000258833,0.0105553,-4.05312e-05
0.000814398,0.00310007,0.00972343,0.00989735,0.000959814,0.00176132
0.0103621,0.0212373,0.0010939,0.0122366,-0.00367135,0.00337094
0.0219508,0.0126458,-0.0201762,-0.00262868,0.0114527,-0.00296533
0.00922029,0.00946799,-0.0105881,0.00540081,-0.0037396,-0.00197494
0.0231676,-0.0300325,0.00895332,0.00961551,-0.00755757,-0.0188729
-0.405037,-0.315905,0.0562154,0.0271554,-0.0504532,-0.111434
-1.42082,-0.666626,0.0279746,0.00100034,-0.115825,-0.0114583
-1.53848,-0.808408,0.142778,0.0307258,-0.0951561,0.0266563
-1.25169,-0.763716,0.168136,-0.00104588,-0.000114679,-0.00276804
-0.337696,-0.465419,0.105518,-0.0219919,0.0198681,0.0564949
-0.619132,-0.135223,0.0521047,-0.00897849,0.0221185,0.0526907
0.0267295,0.190088,0.0502765,0.000154316,0.0173268,0.0312898
0.47789,0.22726,0.122243,0.00617379,0.00807744,-0.0523173
0.00431447,0.112127,0.0506977,-0.00764024,-0.0585976,0.0204694
0.165229,0.0479293,0.0602644,0.000429332,-0.0190523,0.00266725
0.0285997,0.0511648,0.0191319,0.00959694,0.000572443,-0.00957698
-0.0221642,-0.115611,-0.0804112,0.0192523,0.0155236,-0.0749473
-0.654561,-0.833016,-0.108043,0.048124,-0.0716345,-0.0861574
0.185756,-0.576051,-0.0146763,0.0197645,0.0169612,0.0586414
0.0561552,-0.0663822,0.00503627,-0.0126555,0.000698149,0.073175
0.0518913,0.0318782,-0.00416071,-0.00378811,-0.00643772,-0.00144213
0.10515,-0.0685617,0.0020303,0.0162483,-0.00537306,-0.0587881
-0.102899,-0.301316,-0.0228833,0.0220214,0.00350475,-0.0408198
-0.102623,-0.223269,0.0161436,-0.000743508,-0.0184746,0.0456051
0.180723,0.118265,-0.0277451,-0.0120776,0.0442655,0.0985814
0.069547,0.189802,-0.0948711,0.0123017,0.0331488,-0.0229941
0.050767,0.106625,-0.0206777,0.00279003,-0.0363758,-0.0267897
0.164906,0.0296792,0.00802631,0.0115253,0.00120866,-0.0272417
-0.0110168,-0.000126929,-0.00846461,0.00318432,0.0049637,-0.000454307
-0.0131831,-0.0193598,-0.0126228,-0.00106347,-0.0126914,-0.00562555
0.0881862,-0.0129858,0.0112219,0.00837278,-0.0168196,-0.00387251
0.0488729,-0.0332168,0.031507,0.00489867,-0.00151688,-0.0172029
0.272337,-0.0281307,-0.0179074,-0.00112534,0.0136929,-0.0148638
1.28994,-0.00356791,-0.191618,-0.0154629,0.100156,0.00972074
1.50028,0.0668918,-0.125045,-0.0061447,0.0101034,0.00728202
0.718306,-0.0211324,-0.0985519,0.0110411,0.0029344,0.0141461
0.272009,0.0967337,-0.0838924,-0.0029664,-0.0150955,0.0554617
0.00762155,0.0424227,-0.102695,0.00187457,-0.0038414,0.000503778
-0.207328,0.00817894,-0.230422,0.00835025,-0.0216508,0.0144016
-0.3209,-0.0204445,-0.154802,-0.0106537,-0.019038,0.0113771
0.564586,0.0287869,-0.329169,-0.0151696,0.0948118,-0.00441587
1.41811,0.237492,-0.339078,-0.0101869,0.00492406,-0.00214267
0.563052,0.141864,-0.417521,-0.00609064,0.114862,0.027337
-0.151286,-0.0101453,-0.300612,0.0209707,-0.0302567,0.00256461
-0.432938,0.0717566,-0.0115789,-0.0549448,-0.050229,0.0496212
-0.264642,0.211526,-0.0332231,0.0240117,0.00639603,0.0226925
-0.28126,0.408184,0.0209977,0.0351638,-0.0175713,0.0061667
-0.0241518,0.348273,0.0800453,-0.00952327,-0.0300796,-0.0348936
0.0244729,0.255515,0.201562,-0.00116462,-0.0204877,0.00303829
0.173046,0.0352113,0.121278,-0.0013231,0.0184312,-0.0542057
0.0632185,-0.0811443,0.118414,0.0371954,0.020328,-0.0282593
0.124991,-0.0235255,0.108657,0.00895476,0.0267996,-0.0145235
0.0577002,-0.0534274,0.0840247,0.00560886,-0.0104868,-5.96046e-07
0.0818788,-0.110148,0.0342666,0.00779653,0.0149352,-0.0309855
0.0468073,-0.0940739,0.0479198,0.00123733,-0.0102449,0.0234569
0.0211829,-0.0054228,0.0312227,-0.00442129,0.00683838,0.00642341
0.0562491,0.0447203,0.0107287,0.00706565,8.72016e-05,-0.0154463
0.0264418,0.0362069,0.0160137,-0.0024879,0.00826442,0.0161129
-0.00994701,0.00841791,-0.0085162,-0.000354528,0.00219506,-0.00764728
0.0134648,-0.000152718,-0.0126467,-0.00191498,0.00238585,-0.00313377
0.0380599,-0.016166,0.00357598,0.00121814,-0.00277203,-0.00304782
0.0263216,-0.0257752,0.00145839,0.000997305,0.0037452,-0.00808275
0.00925341,-0.0140197,-0.00295554,0.00331438,-0.00554371,-0.00235504
0.0199293,0.00199983,-0.000884434,0.0040338,0.00616229,-0.00214148
0.0155645,-0.0119122,-0.0168357,-0.00210518,-0.000268519,0.000153422
0.0240946,-0.00016812,-0.0168807,0.00880241,-0.00649822,-0.00564206
0.0113893,0.00840855,-0.00416065,0.00330544,-0.00758541,0.000392795
0.0113625,0.00626563,-0.00842264,0.000852346,-0.00650543,-0.00219262
0.00498128,0.00413657,-0.00629328,0.00249815,0.00398594,0.00261581
0.00497196,-0.00120484,-0.00733016,0.00769556,-0.00736141,-0.00447363
-0.00358474,-0.00227615,-0.0126971,0.00201905,-0.00545961,-0.00880516
-0.0344356,-0.0438922,-0.000789473,0.00507236,-0.00454366,-0.0217271
-0.466978,-0.28813,0.0301591,0.0341936,-0.0468576,-0.0958887
-0.424349,-0.478271,0.0486471,0.00806868,0.00989109,-0.0158128
-0.691496,-0.591193,0.10821,0.00779319,-0.0176239,-0.0939746
-0.539972,-0.359481,0.124374,-0.0109186,-0.0181597,0.0352523
0.0457988,-0.0823082,0.0563875,-0.00156891,-0.0142221,0.0664309
0.255756,0.28571,-0.14608,-0.0109643,0.0512345,0.103319
0.183092,0.198436,0.00486461,0.0498604,-0.038511,-0.101308
-0.615512,0.121539,0.278032,0.00853956,-0.0348897,0.0822457
0.0964428,-0.0977568,-0.204024,-0.00190043,0.0783755,0.075881
-0.335631,0.263719,-0.149221,0.0351031,-0.00470483,-0.0430064
-0.697264,0.541559,-0.245332,0.00151479,0.0198553,0.0425743
0.0161549,1.00899,-0.187995,-0.0300304,-0.0304178,0.105585
-0.109887,0.91105,-0.0532082,0.0087629,0.00338948,-0.00461555
-0.061509,0.54449,-0.12651,0.0412615,-0.0393299,-0.0727351
0.059954,0.260299,-0.101774,0.00564849,-0.0293819,-0.0546607
0.0263645,0.0863826,-0.00140795,0.00871605,-0.015506,-0.0438752
-0.00140433,0.0586159,-0.00988051,0.00350612,0.00249761,-0.00325191
0.0540435,-0.01511,0.00362926,0.00190496,-0.00499421,-0.0241059
0.0752271,-0.0258421,-0.0165248,0.00422537,0.0162025,-0.00957346
-0.0183908,0.00310766,0.00537626,0.00216812,0.001553,0.00108427
-0.0196476,0.0169373,-0.0278402,0.000835657,-0.00833976,0.00619328
-0.0111419,0.0308093,-0.0321707,-0.00144565,0.000927746,0.00239134
0.00694122,0.00728997,-0.0351561,0.00659251,-0.00353634,-0.0148945
-0.0259162,0.0105706,-0.00645438,0.00432324,-0.0123689,-0.00201178
0.0274797,0.0191092,0.0129235,-0.00300074,-0.00439817,-0.00313872
0.0617238,0.0191258,0.0376274,-5.32866e-05,-0.00778973,0.00156593
0.15958,0.0307504,0.0080016,0.00432849,0.0175288,-0.00122225
0.0785858,0.0425561,0.00441541,0.00187695,-0.00956684,0.00522685
0.00623734,0.053322,0.0211705,0.00169295,-0.00912791,-0.00286329
-0.00637178,0.0886292,0.0476042,0.00548661,-0.0118532,-0.00552326
-0.0552477,0.0844342,0.0709543,0.000788748,-0.0135199,-0.00385278
-0.101037,0.0513669,0.0784777,0.00248599,-0.00666875,-0.00601494
-0.0799414,0.0309967,0.0444961,0.00496244,-0.00458652,0.00477779
-0.0587565,-0.00323337,0.0266342,0.00324422,0.00640529,-0.00250906
-0.0503017,-0.00219341,0.014909,0.00262207,0.00760239,-0.000108063
-0.0238409,0.000939089,-0.014929,0.00035423,-0.0119517,-0.00314069
-0.00992839,0.0201719,-0.00645563,-0.00231045,-0.00720656,-0.00449115
-0.184731,0.0491242,-0.0190521,-0.0149288,-0.0155154,0.0228165
-0.374837,0.0106876,-0.0900306,-0.0954516,0.0115165,0.0492426
-1.35936,-0.0441033,-0.0837459,-0.0225503,-0.0481673,0.0769318
-1.46523,-0.0940229,0.0337096,0.0324854,-0.0510451,0.0212185
-1.56943,0.0442094,0.236496,0.0642483,-0.0279584,-0.0831911
-0.541405,0.237448,0.0093768,0.0296926,0.0649762,-0.0781742
-0.495836,-0.0208126,0.169352,0.0768886,0.000170171,-0.0624591
-0.370037,-0.157597,0.193148,0.0201594,0.00613481,-0.0510147
-0.327962,-0.0990468,0.0967674,0.00374722,-0.00197124,-0.00756323
-0.100159,-0.0287909,0.0544256,0.00322938,0.0272571,0.0193811
-0.023602,-0.0192826,0.0268697,-0.00355798,0.00912035,0.00778753
-0.043963,0.0298276,0.00297122,-0.00164586,-0.00927573,0.00567591
-0.032239,0.0362284,0.00297266,0.002722,0.00364685,0.0135402
0.118953,0.0147209,-0.0134162,0.00669083,0.013974,0.00332797
0.149878,0.0243175,-0.0101583,0.00195631,-0.0205695,-0.0113333
0.0454553,0.0617764,-0.0139963,-0.00131163,0.0107036,0.00279373
0.0592879,0.0745775,-0.0183026,0.00829387,0.00534958,0.0028969
0.0902437,0.0574817,-0.00739103,0.0010761,-0.0118415,0.00190765
0.114829,0.0211733,0.00896203,0.00820023,-0.00717247,-0.005467
0.140339,0.0371565,-0.00279911,0.00424427,-0.00976121,0.000735641
0.0657638,0.00944602,0.00137693,0.00547922,-0.00672114,0.00346571
0.0582198,0.0179713,-0.0136653,0.0010075,0.000316262,0.000703037
0.0230396,0.021197,-0.0170242,0.00274938,0.00442606,-0.00394011
0.0263034,0.0148055,-0.00521664,0.000225365,-0.00606877,-0.00633574
0.0199646,0.00841765,0.00441775,-0.00247544,-0.00272012,-0.0136856
0.0230662,0.0105248,-0.0116134,-0.000119209,0.0046286,0.000662506
-0.0651721,0.00317339,0.0222942,0.00234199,-0.0153497,0.00220644
-0.000229444,-0.0171847,0.0151916,0.00602838,0.0124327,0.00106478
-0.00887409,-0.00226074,-0.0063068,0.00431621,-0.00284183,0.00623459
-0.00461561,0.00307472,-0.00739295,0.00171417,-0.00191921,-0.00475711
-0.0108827,-0.0385364,0.0174261,0.0121267,-0.000798643,0.00459695
0.0178111,-0.0236281,0.00354836,-0.0012545,-0.00346565,0.00846076
-0.0216387,0.0159124,-0.00433657,0.0126842,0.00135183,0.00714254
0.00172906,0.00839621,-0.0159518,0.0015251,-0.000906467,-0.000745773
0.0240961,-0.00977982,-0.0157503,0.00582531,-0.00749105,-0.00999814
0.0124674,-0.0172202,0.000280604,0.00645679,0.00164235,-0.00581151
-0.000284339,-0.0118603,0.00554044,0.00477868,-0.00505114,0.00468922
-0.0045469,-0.0513752,0.00898709,0.0056963,-0.00521928,-0.00573128
-0.0023829,-0.100497,0.0189288,0.0114669,-0.00534743,-0.00525963
0.0216391,-0.266202,-0.0472194,0.0248583,0.0030567,-0.0785132
-0.0453692,-0.970266,-0.14227,0.0726728,0.0046072,-0.235589
-0.487601,-1.59186,-0.272382,0.099808,0.0394854,-0.0318689
-0.664429,-1.57311,-0.622548,0.052772,0.0946584,-0.0207669
0.096063,-1.40274,-1.21914,0.0726657,0.141623,0.0300391
-0.320098,-1.33501,-1.14955,0.0404301,-0.0795405,-0.00958169
-0.85238,-1.22735,-0.902224,0.054926,-0.0761372,0.0653926
-0.86019,-0.686089,-0.475178,0.00682026,-0.0540898,0.0682392
-0.383139,-0.433099,-0.369256,0.0118844,0.0278664,-0.0105432
-0.457287,-0.287351,-0.131145,-0.000186324,-0.0572882,0.0147381
-0.152178,-0.229798,-0.0737495,-0.00304937,0.0259082,0.0215081
0.278252,-0.152167,-0.0865302,0.0119323,-0.0399643,0.00705409
0.166923,-0.187167,0.0083706,-0.00498497,-0.0709638,-0.0138122
-0.207619,-0.0732105,0.26266,0.00839102,-0.0861082,0.0409395
-0.0911413,0.0375655,0.130956,-0.0052796,0.0628727,-0.00481105
-0.0695747,-0.0481306,0.0033791,0.0119191,0.0297599,-0.0149207
-0.234231,-0.0820386,0.089528,0.0102789,-0.0331213,-0.0199755
-0.00747628,-0.00216416,0.0492562,-0.00112218,0.0453464,0.0223699
-0.0265003,0.0534335,0.0701936,0.0102551,0.00167817,0.0130911
-0.0457975,0.0352569,0.0520757,0.0093208,0.000108749,0.00220931
0.0956959,-0.0129759,0.0197963,0.00860965,0.0232582,-0.0133705
0.110757,0.0190956,0.0410145,0.00104415,-0.00466904,0.021574
0.0514365,0.116433,0.09038,0.00621665,-0.0247051,0.0138824
0.0663448,0.149529,0.0859457,0.00555599,0.0142798,0.00353372
0.177031,0.172905,0.0627023,0.00256592,0.0167697,0.0104562
0.299393,0.182375,0.0331831,-0.00382036,0.0205201,0.00182223
0.889153,0.0899225,-0.0473491,-0.00645137,-0.00315219,-0.00549388
1.05287,0.228846,0.0560033,-0.00597537,-0.0311747,0.0866623
1.7219,0.430168,0.0198061,0.0174192,0.01365,0.0301151
1.64105,0.594745,0.0269854,0.0207718,-0.0146394,0.063592
1.8716,0.648088,0.0884043,0.0292237,-0.0881082,0.0347204
1.47327,0.598244,0.122494,0.0153997,0.00464225,-0.0151531
0.437054,0.495268,0.0402166,0.00977635,-0.015967,-0.000244677
0.837482,0.18731,0.0340984,0.0243022,0.016016,-0.0895402
0.355329,0.0155624,-0.0413869,0.0113305,0.00855863,-0.0143497
0.139507,-0.0973477,0.0482874,0.00622714,-0.0219166,-0.0287744
0.144859,-0.100549,0.052603,0.0121036,0.0231832,-0.00187659
-0.014043,-0.0684291,0.0261569,0.000940204,-0.00762266,0.0179048
0.0316246,-0.0364659,-0.00165949,-0.00302494,0.00206798,-0.00115192
-0.00454291,-0.00437884,0.005474,0.00847417,0.00149196,0.0030722
0.0561777,0.0169307,0.00129222,-0.00159878,-0.00486583,0.00472707
0.0774104,-0.0236928,-0.00798233,0.0122438,0.010798,-0.016525
-0.00890091,-0.0300365,-0.00826588,0.00492549,-0.00240177,-0.00417805
-0.0290915,-0.0235979,0.000165784,0.00296581,-0.010374,0.00534207
-0.020563,-0.00224228,-0.0010092,0.00330919,-0.00106293,0.0025605
-0.0206093,0.00735633,-0.00961873,0.00718153,0.00429088,-0.0044114
-0.00881446,0.00202894,0.00328136,0.0102161,0.00136995,-0.00862336
-0.117407,-0.0192231,0.0201066,0.00419796,-0.0179104,0.00378996
-0.201231,0.0354122,0.073931,-0.00287092,-0.0145867,0.0109074
-0.0556054,0.132703,0.184964,-0.00466561,-0.0156301,0.0122236
0.34465,0.220937,0.114306,-0.0100845,0.0598352,0.0178505
0.144878,0.0927713,0.0385285,-0.00136018,-0.00100446,-0.0645534
-0.104288,-0.0704025,0.0803226,-0.0019176,-0.00925362,-0.00600773
-0.268974,0.285516,0.126546,-0.00422633,-0.0258895,0.103828
-0.428909,0.857006,0.057067,-0.0120074,0.055802,0.0956917
0.205907,0.967224,-0.168852,0.0389757,0.0856355,-0.057786
0.237937,0.860727,0.0296213,0.0194969,-0.0691975,-0.0179947
2.08791,0.92335,0.600283,0.00630683,0.0407497,-0.0125852
1.66941,0.876745,0.64603,0.0141713,0.000705719,-0.0815903
-0.573874,0.0414289,0.299008,0.0222223,-0.0025295,-0.0803201
0.135339,0.062132,0.227806,0.00231701,0.032751,0.0131094
0.0361499,0.0939084,0.030634,-0.00725088,0.0383431,-0.00214183
0.0325516,0.0318477,-0.0309477,0.0073418,-0.00887817,-0.0326344
0.190574,0.0147345,0.0253158,0.0175844,0.0247961,-0.0194281
-0.0182893,-0.0235624,0.0247791,-0.00854293,0.00592929,-0.00399137
0.012354,0.0115837,-0.0212753,-0.00696236,-0.000293911,-0.00138307
0.0251424,0.00303091,-0.0201046,0.0042024,-0.00614083,-0.009534
0.00608002,-0.00546492,0.000179803,0.0101057,-0.00873643,-0.00754356
0.028454,0.00306229,-0.000860827,0.00935376,0.00485164,-0.0018847
-0.000283324,0.00309279,0.00437447,0.00737041,0.00104976,0.00109982
-0.0163098,0.0052274,-0.003177,0.00789076,-0.00557202,-0.00527835
-0.013117,0.0105642,-0.00426828,0.00574836,-0.000573516,-5.73397e-05
-0.0109535,0.0116406,0.00107413,0.00325355,0.00291544,-0.00201786
-0.0056537,0.00735709,-0.00315366,0.00682518,-0.00630641,-0.00719035
-0.0141592,0.00630017,2.82126e-05,0.00136581,0.00345188,-0.00666702
-0.00985224,0.00630971,0.00752408,0.0039162,-0.0012514,-0.00429797
-0.0184235,0.00203076,3.955e-05,0.0011487,-0.00126338,-0.000958622
-0.020541,0.00310349,0.00216327,0.00963181,0.00174356,-0.00727201
0.00823992,0.000949653,0.00442104,0.000582963,0.00293225,-7.70688e-05
-0.00777821,-0.00545676,-0.000939828,0.000299662,0.00481933,-0.000987053
0.00076994,0.00415654,0.00223443,0.00421056,0.000518799,-0.00427425
-0.00884165,-0.00118296,-0.000971995,0.00687969,-0.00220644,-8.29697e-05
0.00501082,-0.000125376,-0.000926512,0.00281209,0.000182629,0.000353575
0.00820787,0.000940865,-0.000922402,0.00670063,-0.000741482,0.00237405
0.0156863,0.00200919,0.00230373,0.00375181,0.00340384,-0.00519538
0.00395805,-0.000120716,0.00120613,0.00342399,-0.000572264,-0.0022338
-0.00777713,-0.00332046,-0.000953486,0.0052408,-0.00222516,3.3915e-05
0.00927826,-0.00226305,0.000171681,0.00328556,0.00195551,-0.00165522
0.000742234,-0.000123645,-0.00201181,0.00324866,0.00104612,-0.00257117
0.00184716,0.00202322,0.00438891,0.0031487,-0.00168598,-0.00628078
0.0039783,0.00202122,0.00439776,0.00402975,-0.00149071,-0.0041036
0.00180824,0.000944061,-0.0020154,0.00290608,-0.00326103,-0.000989079
0.00503101,0.00201692,0.00226435,0.00273713,-0.00119239,-0.00765502
0.00397027,-0.001185,0.00334959,0.00262007,0.000907362,-0.000606298
-0.0194619,0.00524422,0.00428729,0.00534186,-0.0019868,0.00244367
0.000756025,0.00201678,-0.000567062,0.00409827,-0.00339979,-0.00275248
-0.00353108,0.00308045,-0.00490537,0.00202227,-0.00178522,-0.00104737
-0.00561618,0.00523064,0.00255382,0.00785807,-0.0019753,-0.000174403
-0.00566807,0.00414873,-0.00598951,0.00574934,-0.00138968,-0.00340378
-0.0109511,0.00416622,0.00146879,0.00379086,-0.000956297,-0.003892
-0.00671582,0.000949431,-0.00276497,0.000588685,-0.00133777,-0.00318325
-0.00351286,0.000949076,-0.00168491,0.00435394,-0.00638109,-0.000347495
0.00180779,-0.000124577,-0.00272733,0.00620732,-0.00260562,-0.00232375
0.00824408,-0.00332073,0.00479626,0.00822356,0.000472546,0.00271165
0.00500976,-0.00226176,-0.00163246,0.00221229,0.00258487,0.00189358
0.00396327,-0.00225466,0.0015674,0.00214335,-0.00272709,-0.00252664
-0.00454771,-0.00117608,0.00366487,0.00507742,-0.00540859,-0.000347137
0.000753503,-0.00332494,-0.000572961,0.000107378,-0.00172228,-0.000531256
-0.0120405,-0.00545285,-0.00167713,0.00315917,-0.000729561,0.00143701
-0.000318369,-0.00332627,-0.00164485,0.0013797,-0.000761569,0.000349104
-0.00563436,-0.00545463,0.000485284,0.0043233,-0.00206655,-0.000909626
0.0114013,-0.00547101,-0.00158801,0.00328639,-0.00392687,-0.000823081
0.0114423,-0.000118896,0.00478823,0.00318915,0.000386715,0.000462234
-0.0141437,-0.00117151,0.00256207,0.00589976,-0.00189126,0.000253677
-0.00565678,0.000947345,-0.00383067,0.00761437,-0.00249523,-0.0011313
0.00715942,-0.00332574,0.00158736,0.00668165,-0.00100583,0.00124443
0.00289297,0.000948722,0.00047446,0.00667328,-0.00358832,-0.00139219
-0.00885451,-0.00118629,-0.00382957,0.00453147,0.000137568,-0.000482798
-0.0109835,0.00308826,-0.00386564,0.00355434,-0.00208592,0.0021863
-0.00460612,-0.00333022,-0.00593533,0.00570959,-0.00436389,-0.00405151
-0.00991136,0.00308831,-0.00279099,0.0047586,-0.0047121,-0.00241745
-0.0109657,-0.000111661,-0.000637485,0.00299031,-0.00620735,-4.20809e-05
-0.00563071,0.00202313,0.000435959,0.00171873,0.00118899,-0.00219226
-0.0173496,0.00630549,0.000362608,0.00136822,-0.00411201,0.000446796
0.00286798,0.00200924,-0.00380583,0.00911483,-0.00344294,-0.00167763
-0.00353894,-0.000126708,-0.00595154,0.00427949,-0.00260437,-0.0018481
-0.00351941,0.000948056,-0.00275517,0.00646198,-0.00152773,0.00209153
0.0114305,0.00201416,0.0026366,0.00846738,0.00363147,-0.00446814
0.00502139,-0.00439394,0.000517261,0.00632587,-0.0018338,0.000769496
0.00397085,-0.000117076,0.00262344,0.00332353,-0.00121289,0.00231326
0.00397222,0.0030887,0.0026001,0.00337496,0.00388813,0.0025264
-0.00351448,-0.00225542,-0.00166432,0.00740081,-0.00194979,0.000535727
-0.00350497,0.00415605,-0.000638361,0.00947076,-0.00379539,-0.00138682
0.00608969,0.000945659,0.000487871,0.00643313,-0.00215632,-0.0026083
0.000786959,-0.000110507,0.00474743,0.00423506,-0.00185043,0.000686884
-0.000309315,0.00201656,-0.000611006,-0.00290346,0.00270879,-0.00243425
-0.0120587,-0.00332157,-0.0048974,0.00801235,-0.00255805,0.00111318
-0.00883686,-0.00438568,-0.000602561,0.000512719,4.6134e-05,-0.00324702
0.0018254,-0.00332374,0.000499209,-0.00412056,0.00279325,-0.00058639
0.0103709,0.000948766,0.00370771,0.00460801,0.000707686,-0.00257629
0.021048,0.00628721,0.0069187,0.0030244,-0.00130039,-0.00156808
0.0050267,-0.00652837,0.00159938,0.00361553,0.000602186,0.00039351
0.0124792,-0.00653689,0.000561166,0.0070222,0.00449485,-0.00266349
0.0529422,-0.0482285,-8.58307e-05,0.00392255,-0.000157475,-0.00785184
-0.410349,-0.691089,-0.0863341,0.0648083,-0.0469009,-0.141212
-1.01127,-1.4172,-0.194995,0.059293,0.0316903,-0.118732
-0.306741,-1.57894,-0.142159,0.0792689,-0.0139534,-0.027213
-0.418774,-1.42297,-0.182055,0.078339,0.0442048,-0.0250046
1.77839,-0.160983,-0.814531,0.0770642,0.107875,-0.0581205
1.36573,0.282473,-0.906565,0.0728819,-0.0646073,-0.000254393
0.795183,0.345506,0.0727934,0.078402,0.0055331,0.119399
0.243404,-0.0838271,0.49341,-0.109032,0.0925496,0.0853019
-0.472572,-0.279036,0.340277,0.0621589,-0.0641371,0.104784
-0.867562,0.306328,0.161914,-0.216529,0.156959,-0.0711182
-0.246506,-0.0187311,-0.365741,-0.138603,-0.0363623,-0.188727
0.0972395,-0.389722,-0.40158,0.0089606,-0.0169363,0.0287831
-0.98863,-1.40402,0.0261712,0.158238,-0.047153,0.162848
-0.144412,0.0374292,-0.581549,-0.390296,0.00932449,-0.0596865
-0.0647649,0.118329,-0.0988376,0.0810504,0.0295419,-0.0790789
-0.0798996,-0.119273,0.242414,-0.0169675,-0.034481,-0.00844061
-0.479034,-0.0579669,0.308902,0.0150886,0.00671864,0.00536823
-0.512894,-0.143627,0.177912,0.0397359,0.0484176,-0.0162518
-0.350623,-0.0325816,0.220537,-0.0363516,-0.087271,0.0156131
-0.268025,-0.0498827,0.136552,-0.00057447,0.00410163,-0.00310361
0.178196,-0.0898041,0.102155,0.00832134,0.0029977,0.0137349
0.07465,0.0309072,0.0593134,-0.00196797,0.0140885,0.0354605
0.104329,0.0265678,0.033809,0.0116707,0.0221066,-0.0314707
-0.0226393,-0.00756434,0.00791263,-0.00290871,0.0208387,0.0190825
-0.0469154,0.148455,0.0324531,-0.00580627,-0.0109844,0.0598294
0.14088,0.0843082,0.0827214,0.0336794,-0.00807518,-0.0837162
-0.144925,-0.0191486,0.0502691,-0.00581694,-0.00643134,0.0322375
-0.0130921,0.176118,-0.0156791,-0.00353539,0.00301671,0.0230251
-0.0880226,-0.00304469,0.120895,0.018334,-0.0360909,-0.0437118
-0.3352,-0.0402336,0.12769,-0.00250685,-0.00911438,0.00907493
0.218695,0.00522429,0.0952779,0.000930011,0.0414354,-0.00627428
0.0467817,0.0212671,0.0325615,0.00394166,0.0121502,0.00287127
0.000866904,0.0575866,0.0129218,0.013032,0.00901073,0.00217289
0.026706,0.0277399,0.0602241,0.0132351,-0.0181074,0.0129783
-0.032936,0.0705139,0.0607925,0.00212204,-0.0374602,0.0284778
-0.0528685,0.146452,0.106167,0.00525522,-0.0169168,0.0108593
0.139111,0.0662579,0.144803,0.0301603,0.00605541,-0.0156164
0.0941028,0.104667,0.0984414,0.00827479,0.00965071,0.0298008
-0.0492749,0.0875118,-0.000282619,0.0148344,0.0130961,0.000971556
0.0880131,0.11406,-0.0298553,0.00647205,0.00138211,0.000470638
0.200518,0.212419,0.0660859,0.00965798,-0.0179853,0.0252628
0.572971,0.343679,0.153175,0.00545228,-0.0237018,0.033936
-0.0129001,0.378345,0.176399,0.0224899,0.00576723,-0.0246221
-0.236362,0.239444,0.0600028,0.0057798,0.0446912,-0.0421354
-0.0363142,0.193288,0.0193831,0.0124018,0.00694209,-0.00416052
0.0343789,0.0509829,-0.0841402,0.0218542,0.0186442,-0.0370444
-0.616801,-0.103436,-0.0962604,0.0118315,-0.0366496,-0.0239211
-0.223954,-0.0685834,-0.15378,0.0111613,0.00340265,0.026442
-0.284505,-0.031102,-0.126471,0.00422508,-0.0197532,0.00720352
-0.229735,0.0576283,-0.0627325,-0.00390452,0.00361013,0.013793
0.0190449,0.0575914,0.0236748,0.0165839,-0.0167138,-0.00569344
0.0573304,0.0255006,0.0144091,0.0104982,0.010637,-0.0063985
0.000655774,-0.0193726,-0.0154305,0.00638545,0.00339907,0.00441504
-0.11044,-0.0823865,-0.0571055,0.0240609,0.022638,-0.0123336
-0.0587293,0.0384281,0.0267127,-0.00658441,-0.0225479,0.0263482
0.05317,0.0500982,0.0291926,0.0107387,-0.00755829,-0.000863791
-0.121218,0.0040964,-0.0854856,0.00893188,0.0169895,0.000389695
-0.136007,-0.0332359,-0.0607254,-0.00636178,0.000173926,-0.0137786
-0.00145071,0.0169491,-0.0146046,-0.00759715,-0.0036515,0.0151625
0.0380672,0.0244228,0.000453669,0.00758874,0.00367063,-0.00703204
0.0486862,0.0286765,-0.00594522,0.00321418,0.00261849,-0.00121641
0.00825536,0.0319273,0.00350034,0.000974298,0.00355786,0.0105284
0.00292923,0.0223198,0.00461029,0.00893044,-0.000506222,-0.0095315
0.0233532,-0.00327581,0.0369056,0.00802273,0.0045808,-0.00315571
0.0242712,0.0340618,0.0088871,0.00156915,0.00533402,0.00517774
0.0189819,0.0340771,0.0152777,0.00410569,-0.00169891,-0.00370657
0.0807535,0.0265449,0.0112861,-0.00330633,0.000562847,0.00687343
0.104155,-0.00232133,0.00728711,0.00514072,0.0172647,-0.00676656
0.0263927,-0.0108006,0.0113236,0.00776774,0.0127724,-0.00368112
0.143679,-0.0215458,0.0257214,0.0125992,0.00039345,0.00252759
0.132026,0.0767432,0.0282443,-0.0161148,-0.0274942,0.0259666
0.158465,0.0488954,-0.00245975,0.00901836,0.00192064,-0.000185966
-0.00798556,0.309555,-0.0646063,-0.0095157,-0.000783801,0.0647198
0.487375,0.175646,-0.0693621,0.0611703,0.00309807,-0.0999111
0.854231,-0.00579161,0.17893,0.00281918,0.0271411,-0.00953686
0.806556,0.174511,0.0301367,-0.0182275,0.0629758,0.0847853
0.604939,0.401017,-0.0297806,0.000845075,0.0108647,0.0245937
0.490078,0.373398,0.00843204,0.0115356,0.0067451,-0.0258279
0.407502,0.2305,0.11055,0.0158021,-0.011037,-0.00088948
0.109491,-0.0236835,0.0106508,0.0267111,-0.015457,-0.0329096
0.0700294,-0.0856104,0.00983458,0.00670111,-0.00317293,0.000528336
0.215291,-0.0258071,0.0634134,0.00877783,-0.0120654,-0.00212634
-0.494386,-0.208988,0.0715607,0.0455663,-0.073943,-0.00936234
1.7545,-0.728493,0.229728,-0.0970837,0.180332,-0.221017
-1.51482,-1.69817,0.793256,0.227249,-0.0881689,-0.330166
-1.07566,-1.63041,0.638467,0.0497395,0.0312279,0.00815696
-0.984252,0.690126,-0.320745,-0.018984,0.349125,0.409001
-0.358034,1.08474,-0.406436,-0.0349591,-0.114737,0.0854601
-0.658084,0.98287,-0.148333,0.0330827,-0.0136675,-0.0446561
-1.30097,0.783832,-0.0169629,0.00686646,-0.0476539,-0.0219319
-1.30135,0.643808,-0.0673416,0.0407217,-0.0108435,-0.0210663
-1.19975,0.822205,-0.0200381,0.0271333,-0.019987,-0.0265808
-0.428088,0.59433,-0.495405,0.0167099,0.328514,-0.113373
-2.18243,0.072345,0.17774,-0.0520049,-0.21234,0.229218
0.959262,0.029997,-0.0784032,0.0478059,-0.00493586,-0.0841352
0.460552,-0.0184594,0.0952691,-0.00815558,-0.0475401,0.0875657
1.77086,0.354152,0.55185,-0.0193874,-0.0766871,0.0579963
0.482073,0.617559,0.964149,-0.0379224,-0.126471,-0.0395893
1.03566,0.230371,0.919583,0.0880714,0.0802732,-0.110213
0.550858,0.234566,1.27567,0.00375739,-0.0713716,-0.0114288
1.37272,0.212778,-0.443451,0.0806461,-0.583117,0.191857
0.304233,0.08931,-0.0406397,0.0680489,-0.182689,0.0397483
0.138865,0.0697033,0.281539,0.0618929,0.0426814,0.077812
0.721425,0.231213,0.0433416,-0.131774,-0.0391877,0.0281504
-0.133027,-0.0223101,0.0802514,0.0398398,-0.160831,-0.169041
0.197573,0.00391597,-0.0511703,-0.0103735,0.289076,-0.00891536
0.0589985,0.0456573,-0.0647819,0.0126956,0.0055654,-0.040626
-0.0384827,-0.009648,0.0313733,0.0358106,-0.0292224,-0.0153749
-0.0599222,0.00101086,0.00878626,0.0220138,-0.0207103,-0.00529891
-0.058746,-0.020318,0.0292286,0.0116245,-0.0184402,-0.00808662
0.108202,0.040335,-0.0325085,-0.0254725,0.0878184,0.0421725
0.320951,0.0528861,-0.0926924,0.0254669,-0.0278276,0.00464469
-0.124065,-0.0759022,-0.0198019,0.0372602,-0.0571149,-0.0566157
-0.28393,-0.0565671,-0.0280067,-0.00355865,0.0490097,0.0286162
-0.00999827,-0.0172293,-0.015482,0.0131178,0.00191027,-0.0310434
-0.147054,-0.0917726,0.0571419,0.0344505,0.000812709,-0.014582
-0.127902,-0.106747,0.0541043,0.00844406,0.0130881,-0.0271686
-0.283301,-0.16746,0.08704,0.030045,-0.0152234,-0.00998217
-0.312917,-0.189802,0.125537,-0.0136175,-0.0126943,0.0245923
0.0218915,-0.00339099,-0.0293421,0.0219081,0.0106619,-0.019402
-0.138864,0.0330849,-0.00988261,0.0174059,-0.0217898,0.0206766
0.0732525,0.0703294,0.000286423,0.0154045,0.0328133,0.0112888
-0.0132765,0.101303,-0.0397709,-0.015791,-0.0171587,-0.0170869
-0.0281555,0.0885078,-0.0322628,-0.00141741,-0.019869,-0.000906229
0.759952,0.173247,-0.101447,0.00874647,0.0778527,0.0155607
0.227234,-0.144303,0.111238,0.0469102,-0.0848048,-0.0655065
-0.683521,-0.43053,0.357562,0.046828,-0.0740564,-0.0415246
1.09714,0.0908944,-0.0131059,-0.0454625,0.161254,0.0971588
0.685538,0.162673,-0.0717408,0.0101198,0.00593942,0.040418
0.0486608,0.0799344,-0.0148241,-0.00426818,-0.052842,-0.030047
0.0454855,0.0713987,-0.0105068,-0.00537869,0.000666797,0.0232548
0.164693,0.127877,-0.0371387,0.00127649,0.0101136,0.0190408
-0.0416834,-0.0310085,0.03257,0.0475408,-0.0313043,-0.0816467
-0.255705,-0.0756608,0.0609045,0.025142,-0.0264162,0.0155116
-0.170643,-0.0789818,0.0313286,0.0339202,-0.00815612,-0.0162428
-0.270631,-0.105558,0.062112,0.00534712,0.00556928,0.0296326
-0.151378,-0.151597,0.0521705,0.0302361,-0.013659,0.000893295
-0.0708199,0.0789152,-0.0387719,-0.0145346,0.0271956,0.0219805
0.0451228,0.151395,-0.0783383,0.0224062,-0.0112774,0.000857353
-0.0482631,0.00525554,-0.00188067,0.0159102,-0.0246634,-0.0360337
-0.101707,0.0159277,-0.0309993,0.0132248,0.0566428,0.0340386
-0.0496931,0.171765,-0.0777589,-0.0208441,-0.02917,-0.039269
-0.0821241,-0.0341671,0.0409853,0.0257869,-0.0558738,-0.0374349
-0.0849784,-0.282917,0.120583,0.0269334,-0.0403193,-0.0314777
-0.158215,-0.040645,-0.031915,0.0376384,0.0979259,0.108232
0.00494905,0.0169452,-0.0135101,0.0419652,-0.00655603,-0.0344481
0.04868,0.0158574,-0.00586042,0.0206325,-0.00483388,0.00847363
0.182936,0.0531378,-0.00880453,0.00605103,-3.15309e-05,-0.00799674
0.157473,0.0286253,0.0115567,0.0138101,0.00221896,0.0120706
0.0892906,0.0137259,0.0146063,0.0118297,-0.00301749,-0.00553
-0.00448374,0.0244752,0.012047,0.00681543,-0.00761586,-0.00116354
-0.0843804,-0.00322862,0.0172698,0.0096142,0.00755817,-0.000859737
-0.0418413,0.0116682,0.00237388,0.0101518,0.00239658,-0.00751889
-0.161145,0.00642769,0.00837224,0.0127896,-0.0237688,0.00478131
0.0230224,0.102364,-0.0278881,0.00219671,0.0118029,-0.00757879
0.0837459,0.117267,-0.0309628,0.019275,-0.0111409,-0.0136119
0.0838046,0.0553381,-0.0156023,0.0104446,0.0169781,0.0149325
0.0476549,0.0201427,0.000517603,0.0303285,-0.0180179,-0.00965697
-0.0257894,-0.00434515,0.0153609,-0.00275764,4.14848e-05,-0.00187421
0.0529277,0.0254628,-0.009113,0.0163853,0.00922757,9.33409e-05
0.00286627,0.0116217,-0.00493784,0.00897393,0.0041582,0.000801265
-0.0290398,-0.0353317,0.00913915,0.0187435,-0.0169955,-0.0253532
0.000718225,0.0030737,-0.00702669,0.00890669,0.00944084,0.00210643
-0.0258566,-0.0107726,0.00471718,0.0150078,0.00308615,0.00976664
-0.011942,-0.0129002,0.0154662,0.0163479,-0.000540435,-0.00339705
0.488795,0.00165779,0.00549538,0.00981433,0.01059,-0.0087198
1.57941,-0.122127,-0.0612048,0.0120612,0.0670581,-0.070134
1.5669,-0.23556,-0.182319,0.0230514,0.0563637,-0.0105749
1.39732,-0.226935,-0.210792,0.0219538,-0.00876081,0.019022
2.80452,-0.333078,-0.435617,0.0655322,0.036795,0.0210463
3.63831,-0.131373,-0.18165,0.0602314,0.0753483,0.144778
1.61672,0.255934,-0.0923635,-0.0063255,0.0485115,0.0624083
0.344272,0.354778,-0.317871,-0.0818805,0.0407878,0.0280229
-0.00772916,0.253467,-0.373021,0.0261778,-0.0173389,0.0302997
0.0294559,0.250516,-0.212596,0.0247237,-0.00378305,-0.0228195
-0.00467983,0.0572146,-0.201854,0.000604972,0.046657,-0.0622354
-0.0080362,-0.16071,-0.209001,0.0363702,-0.0308949,-0.0444239
-0.017962,-0.299333,-0.0745848,0.0167605,-0.0222583,-0.0136663
0.00938881,-0.251395,-0.13783,0.00697584,0.0349887,0.0207667
0.0154442,-0.018666,-0.215177,0.000895709,0.00985156,0.0482394
-0.0394328,0.19941,-0.146279,-7.48485e-05,-0.0194881,0.0481787
-0.111862,0.125778,-0.135389,0.0151386,0.00791971,-0.0716387
-0.12271,-0.00853204,0.022504,0.0262277,-0.0299124,-0.0441686
0.0545256,0.109681,-0.105813,-0.00168866,0.0411986,-0.0151143
0.0259917,0.0820016,-0.0640707,0.012253,-0.017835,0.0165871
-0.0462076,0.00736792,-0.014708,0.00755671,-0.00222471,0.00437999
-0.0781155,-0.00433943,-0.00406741,0.000867635,-0.00148694,-0.00199789
-0.0791278,-5.06747e-05,0.00444801,0.00976944,0.0146988,-0.00673634
-0.0663852,0.00206356,-0.00299817,0.00618729,0.0122634,0.000476301
-0.0791874,-0.00434058,-0.00513967,0.00952682,0.00151606,-4.81009e-05
-0.0588875,-0.00967991,0.00458689,0.00381641,0.00500578,0.0048185
-0.0557809,-0.0107764,-0.0103531,0.00812134,0.00142157,0.000543594
-0.0205954,-0.00332041,-0.00706305,0.00914898,-0.000809312,-0.00394559
0.00922718,-0.00227823,-0.00909523,0.00924981,0.00775173,-0.00471973
0.00603092,-0.00120657,-0.00911642,0.00915759,0.00594306,-0.00278014
-0.00779414,0.000946546,-0.00490598,0.00604513,0.00379394,-0.000786841
0.00503752,0.00201811,0.00261444,0.0104322,0.00599129,-0.003685
-0.0205678,0.000960173,-0.00281766,0.00901824,-0.000323981,-0.00452924
0.00286069,-0.000129904,-0.00485854,0.00893176,0.00132152,-0.00446999
0.00709298,0.00413036,-0.0102126,0.00979221,0.00366496,-0.00257236
-0.00352146,-0.00332516,-0.00272653,0.00672933,0.00592396,-0.00553548
-0.0141554,0.00096075,0.000412161,0.00940502,-0.00510839,-0.00350147
0.0198175,0.00837503,-0.0208772,0.00663804,0.00648361,0.00329804
0.0208723,0.0126437,-0.0230387,0.00614689,-0.00126238,0.00101316
0.026225,0.0115793,-0.0187386,0.0050125,-0.00478347,0.000684142
0.181478,0.059432,-0.0750942,0.00308505,0.0217305,-0.00365621
0.120658,0.0306151,-0.0868865,0.00978734,0.00418949,-0.0137253
-0.0110514,-0.00547749,-0.0144915,0.0179932,-0.0287939,-0.00498515
-0.0108853,0.00738833,0.012135,0.00896525,0.0159002,0.000644267
0.0252327,0.00412356,-0.00586938,0.00948004,0.00686102,0.00248367
0.00931736,0.0116316,0.00470664,0.00961284,-0.00988249,0.000259101
0.00607645,-0.000126663,-0.00164127,0.00987612,-0.00877237,-0.00497198
0.0241154,0.00304183,-0.0144154,0.00605144,0.00826047,-0.00312907
0.0103194,-0.000135451,-0.00483067,0.00120732,0.00454254,-0.000472546
0.016668,-0.000153916,-0.0122846,0.00241637,0.0062165,-0.00355589
0.012476,-0.000129371,-0.000549316,0.00827663,0.00764047,-0.00266737
0.0103253,-0.00120218,-0.00375443,0.0068251,-0.000666723,-0.00584829
-0.00674184,-0.000126618,-0.00703103,-0.00152242,-0.00704813,-0.000281394
-0.000316505,-0.000123112,-0.00166257,0.0100376,-0.00138558,0.000764906
0.0071026,-0.00227526,-0.00803371,0.00562929,0.00653633,-7.33733e-05
0.0251997,0.00197763,-0.0111974,0.00531025,0.00769484,-0.00126493
-0.00136714,0.00415428,0.000442464,0.0060206,-0.00116363,-0.000468552
0.00285971,-0.00226673,-0.00484374,0.00614268,0.00155404,-0.00334889
0.000708313,-0.00440663,-0.00804431,0.00698472,-0.000479475,-0.00643957
-0.00563197,-0.00118323,0.000460536,0.00746699,-0.0050066,-0.00278962
0.0188277,0.00626146,-0.00804507,0.00729258,0.00439462,0.00194824
0.00921626,0.000921246,-0.01125,0.00861038,0.00477464,0.000748932
-0.0364216,-0.00967196,0.0196322,0.00957708,-0.00491853,-0.00197136
-0.909126,-0.251918,0.388688,0.0654177,-0.200553,-0.0871456
-0.105708,-0.240458,0.570053,-0.0085942,0.228808,-0.015128
-1.19629,-0.576541,0.327746,0.0247573,0.0227634,-0.0160923
-1.35906,-0.82413,0.391781,0.0369329,-0.00982049,-0.0815653
-1.64841,-1.30163,0.869254,0.110001,-0.208766,-0.0299103
-0.76857,-1.24835,1.17564,0.0847361,-0.0730884,0.0292532
-0.208121,-0.935532,1.32423,0.0396739,0.0154411,0.0357335
0.658755,-0.517202,0.855712,-0.0102723,0.175414,0.0667568
1.08401,0.0961435,-0.0708836,-0.0458679,0.220788,0.134875
2.34813,0.759142,-0.949781,-0.0160492,0.20472,0.121738
0.834542,0.513536,-1.55646,0.0624034,0.00372015,0.0571817
0.459226,0.440808,-1.77108,0.0787009,-0.0128101,0.0300779
0.286737,0.393535,-1.38999,0.0897354,-0.102287,0.0108576
0.182537,0.379661,-0.817598,0.0470484,-0.08946,0.0194621
0.0256376,0.22043,-0.313914,0.0173306,-0.0917875,-0.029137
0.023981,0.0531985,-0.0414483,0.0115537,-0.0108917,-0.0335025
-0.262061,0.0493122,0.0558029,0.00216791,-0.0436611,0.0364555
-0.0514651,0.0960371,-0.0110239,0.00140648,0.0441128,-0.0288594
-0.00700528,0.0222242,-0.0531178,0.0166676,-0.0120201,-0.00545156
-0.0175804,0.0158459,-0.0392234,0.0214159,0.00277478,0.000896931
0.00467616,0.0328842,-0.0606222,0.00781615,0.00561392,0.00196707
-0.0248685,0.0126988,-0.0103855,0.013523,-0.0155305,-0.00260514
-0.0344576,0.000957155,-0.0092756,0.0142748,-0.0112889,0.000582337
-0.00571322,0.00199579,-0.0134474,0.00907294,-0.00167444,0.00355512
-0.000395185,-0.00441906,-0.0144547,0.0084518,0.00465459,-0.00332683
-0.000385114,0.00306043,-0.0134353,0.00339104,0.0123295,-0.00329524
0.00499739,-0.00226771,-0.00376463,-0.00412329,0.00373867,-0.00647068
-0.0174017,0.00308293,-0.00815774,0.00374673,0.00192812,0.00153947
-0.0175471,-0.0193886,-0.0304494,0.00233229,0.0156856,-0.00191361
0.00190098,0.00630793,0.0121955,0.00758663,-0.0123633,-0.00385594
-0.038586,-6.88722e-05,0.0131534,0.00372729,0.00982812,-0.0030334
-0.0184407,0.00522789,-0.00390241,0.00327574,-0.0141459,0.00565869
-0.0152998,0.00841232,-0.0135252,0.00496203,0.0105508,0.00245678
-0.0205683,-0.00117897,-0.00279792,0.00351085,0.0110518,-0.00563437
-0.0173525,-0.0011763,0.000420588,0.00486599,-0.00958499,-0.0094142
-0.0216184,0.00416653,-0.000699613,0.00194018,-0.00477326,0.004448
-0.024832,-0.00438057,-0.00279265,0.00317815,0.00763598,-0.00156748
-0.0312109,-0.00116681,-0.000701895,0.00513244,-0.000134885,0.000851333
0.00923716,0.00413071,-0.00806384,0.00225758,-0.000408769,0.00285691
-0.00463061,-0.00227237,-0.0102099,0.00421519,0.00738287,-0.00273353
0.012484,0.002006,0.000511478,0.00133285,0.00590076,-0.00820398
-0.0194873,0.00416471,-0.000691148,0.00420228,-0.00287898,-0.00309271
0.0177819,0.00626501,-0.00483759,0.00702797,0.00400504,0.00200677
-0.0141719,-0.00759124,-0.00166356,-0.00225953,0.00194256,-0.00741994
0.00178188,-0.00227228,-0.00697904,0.00235978,-0.006938,-0.00469518
0.0242234,0.000934784,0.00376735,-2.75671e-05,0.00175178,-0.00584567
0.00709116,-0.000144063,-0.0101813,0.00576739,-0.00371566,-0.00107032
-0.00247565,-0.00547074,-0.00590807,0.00400087,0.00615506,-0.00184423
-0.0131158,-0.00118727,-0.00383661,0.00296344,0.000283465,0.00106776
0.040126,0.0575052,-0.0147033,0.0109505,-0.00907299,0.00745833
