rotation_x,rotation_y,rotation_z,acceleration_x,acceleration_y,acceleration_z
-0.0172161,0.102921,-0.0517379,-0.0564319,-0.0259119,0.0276627
-0.00245698,0.000708233,-0.00543103,0.00289118,0.0150223,0.005557
0.0104737,0.00069543,-0.0010044,-0.00155908,-0.00233405,0.00356781
0.00290269,-0.00887636,-6.0685e-06,-0.00110793,-0.00194022,0.00640374
0.00512575,-0.0014291,-0.00641765,0.00173017,0.00254089,0.00582165
-0.0176943,-0.000345907,0.00403579,-0.000230193,-0.00251624,0.00528193
-0.166369,-0.00344689,0.0548145,-0.0139754,-0.0278515,0.00581211
-0.130874,-0.123786,0.188112,0.0158548,-0.0278374,0.019851
-0.0594546,-0.0418526,0.0721222,-0.0105112,-0.00960419,-0.0017159
-0.029512,0.0347957,-0.00683651,0.0049071,0.0054378,0.00664556
-0.040364,0.042248,-0.00376251,0.00244676,0.0751549,9.2864e-05
-0.0219592,0.00710799,-0.00244694,-0.00715062,0.00574508,0.00218284
0.0309549,-0.0142281,0.00673233,0.00129019,-0.00538662,0.024071
-0.0264065,0.0294598,0.00711348,0.00268643,0.0142385,0.000243485
0.0817336,-0.0536491,0.0148463,0.00160991,0.0232774,0.0123835
-0.0132312,0.0411662,-0.0130901,-0.00871083,-0.0133065,0.00477153
0.0418292,-0.00997235,0.000432501,-0.00357665,0.00344619,0.010015
0.0104564,-0.0152736,0.00222179,-0.00361332,-0.00189832,0.00433326
-0.00240624,0.00603128,-0.0107901,-0.0133603,-0.00613703,0.0316936
-0.0154298,-0.000351253,-0.00558283,-0.00681435,0.0027384,0.0165088
-0.0230303,-0.0131209,-0.00137422,0.0062056,-0.00744341,0.00694913
0.00811598,-0.00463347,0.0182428,-0.00605546,0.000208056,-0.0033201
0.0309441,-0.0706458,0.0132131,0.0127282,0.0160084,0.00146353
0.0103685,0.00601198,0.00862129,-0.0111473,-0.00562539,0.00445426
0.00601734,-0.0248507,0.0139624,0.00100961,-0.0136884,0.00524986
-0.0878528,0.0571874,-0.0139525,-0.00148809,-0.0165295,0.0055576
-0.0889441,0.0444163,-0.0118081,-0.00139149,-0.00884438,0.00556821
-0.0535094,0.0124431,0.0153851,0.00124024,0.0363816,0.00173163
-0.0857226,0.0444127,-0.00963095,-0.0167106,-0.0413932,0.0011031
-0.0575191,0.0209725,-0.0157161,0.00326586,0.00263196,0.0037322
-0.011145,-0.00567446,-0.00124185,0.0037612,-0.00693394,0.00536656
0.00712958,-0.0216601,0.0107562,0.00287876,0.000218533,0.00572765
-0.0328705,-0.00460133,0.00814115,0.000830129,0.00258227,0.00148761
-0.036167,0.0135011,0.0113043,-0.00291748,-0.00141675,0.00408143
0.0424292,0.00172325,0.0453959,0.00165491,-0.00195248,0.00525504
0.150633,0.0122892,0.0380444,0.00435233,0.00597979,0.00434148
0.276313,0.0206929,0.117623,-0.0192365,0.0464603,0.00794768
-0.0453411,-0.0663415,0.0690985,-0.0246649,0.0199553,0.015954
-0.0907824,-0.0247991,0.0674648,0.00104198,-0.0180585,0.00292587
-0.059076,-0.016302,0.0335476,0.000392973,-0.0172629,0.00174224
-0.151537,-0.0215633,0.0860493,0.000825867,-0.0209252,0.0004825
-0.433882,-0.078893,0.308829,-0.0139551,0.00747857,-0.00473148
-1.02908,0.184572,-0.087912,0.018239,0.165673,0.0538859
-3.20571,0.0244479,-0.399375,0.0245134,-0.102479,-0.0314511
-0.592713,-0.00412616,-0.228403,-0.0321146,-0.10033,-0.00384712
-0.137262,-0.0577355,-0.0347454,-0.00555061,0.130716,0.0630892
0.637703,0.116262,-0.0154297,-0.0189767,-0.0106702,-0.00576651
0.597781,-0.0050859,0.0913086,0.013252,-0.00777176,0.0119827
0.222268,-0.0303604,0.120276,-0.0104314,-0.0139593,-0.00575316
-0.0911868,-0.0311663,0.00322701,0.00232497,-0.0170169,-0.00374365
-0.564953,-0.0127018,-0.0899626,-0.0041291,-0.0176593,0.00210166
-0.0488129,0.0326732,-0.022058,-0.00539775,-0.00581744,0.0041008
-0.0222096,-0.0216411,0.0243442,-0.00194016,-0.00321314,0.00852871
0.144191,0.0122908,0.0336831,-0.0067974,0.00200614,0.00582582
0.124516,0.000595009,0.0548916,-0.00113681,-0.0120786,-0.000551403
0.202065,-0.00159679,0.084684,0.00495237,0.00497973,0.0177304
0.448714,-0.0869618,0.18714,0.00255355,0.00669181,0.00407028
-0.31947,-0.173668,0.131411,0.00865522,-0.0341716,-0.0139468
-0.609413,0.0160707,-0.0808564,0.00300559,-0.025086,-0.00417793
-0.126252,0.034875,-0.062547,-0.00746952,-0.00274035,0.00797164
0.982235,0.00211871,-0.0670974,0.00486925,0.0177495,-0.00842077
0.0191026,-0.0216713,0.00339131,0.00633191,-0.0167885,-0.010896
-0.552662,0.0106942,-0.0266703,-0.00471978,-0.0317017,0.00757909
-0.195922,0.0253314,-0.0172899,0.00227514,0.00358394,0.00905293
-0.118254,-0.0173113,0.00504495,0.000701919,-0.00747114,0.000251532
-0.00687147,0.0124165,0.00199965,-0.000172019,-0.011558,-0.00159562
-0.00141689,0.00921836,-0.00222061,-0.00279146,-0.00974652,0.000334859
-0.00795836,0.00815367,0.00305522,-0.00172116,-0.00672898,0.00545299
-0.0143267,0.0220052,-0.00987219,-0.000956684,-0.00668702,0.00124407
-0.00786337,0.0145398,-0.0065904,-0.00199953,-0.00762597,0.00219101
-0.0176214,0.0070983,-0.00347712,0.00275664,-0.0133607,0.00225389
-0.0121167,-0.00248129,-0.0119679,-0.000415891,-0.00531054,0.00237024
-0.0122073,-0.00141865,-0.00340384,-0.00288875,-0.00561666,0.00251937
-0.0230368,-0.0290881,0.000783328,0.00113347,-0.00645936,0.00243503
-0.040327,-0.0386558,0.000596516,-0.00643477,-0.0106394,-0.000310302
-0.00897217,0.0188019,-0.00446065,-0.00625531,-0.00783151,-0.00137979
-0.00240116,0.013477,-0.0118756,-0.00496612,-0.00147533,0.00376511
0.0318642,0.00173156,0.0217134,-0.00313051,-0.00430498,0.00446349
0.000667867,-0.0131419,0.00745845,0.00171857,-0.0089761,0.00260866
-0.0198756,-0.0141872,0.00723183,-0.00531867,-0.00958511,-0.000596464
-0.00346713,0.020928,-0.0140384,0.000792995,-0.00686285,0.00362289
-0.00130209,0.0177358,-0.0140072,-0.00154944,-0.00214046,0.00446528
0.0178008,-0.00251495,0.0226305,-0.000435501,-0.00522691,0.00398129
-0.0154875,-0.0429338,0.00409314,0.00352953,-0.0092625,0.00462663
-0.0295377,0.0188144,-0.00255496,-0.00575739,-0.0128474,-0.00429225
-0.0346237,0.0230837,-0.033668,0.00195187,-0.00805208,0.00544024
0.0146854,-0.0088915,0.0108299,0.00111572,-0.00834748,0.00307322
0.0168148,-0.0206033,0.0151485,0.00074777,-0.00736123,0.0046407
-0.015505,-0.0365476,0.00515695,-0.00577235,-0.0107352,0.00116372
-0.00235393,0.057116,-0.0204918,-0.00272912,-0.00860512,0.000314891
-0.00122671,0.0209298,-0.0215061,-0.000364125,-7.01249e-05,0.0075891
0.0199998,-0.0174152,0.020533,-0.00120839,-0.00618869,0.00689727
0.00494718,-0.0131421,0.0117949,-0.00164951,-0.00912416,0.00336593
-0.0185165,0.0220073,-0.0227738,-0.000235587,-0.00995681,0.00316256
-0.002323,0.0347739,-0.0215255,0.000299141,-0.00845501,0.00487167
-0.000295416,0.00283034,-0.0054153,0.00207491,-0.00603503,0.00642186
-0.00800946,-0.0397567,0.0127295,0.000120699,-0.00802678,0.00257492
0.000710016,0.00175707,0.00208433,-0.00336252,-0.0108407,0.00145358
-0.000235761,0.0102832,-0.0118463,-0.00155063,-0.00548238,0.00549781
0.00286792,-0.0280467,0.00535512,-0.00106576,-0.00400609,0.0023362
0.00282368,-0.00675544,0.00747812,-0.00485204,-0.00634515,0.00123978
-0.00790311,-0.00354916,-0.00120879,-0.00147693,-0.00550923,0.00513983
0.000686616,-0.00888623,0.00530949,-0.00048098,-0.00921118,0.0034188
-0.00357086,-0.000355617,-0.00222967,0.000273034,-0.00819069,0.00205672
-0.00139058,-0.00568481,-0.00327746,0.00023815,-0.00792634,0.0033989
-0.0014296,0.000697192,-7.71573e-05,-0.000871852,-0.00852025,0.000460863
-0.0100433,-0.00354672,-0.00337408,-0.000917271,-0.00609472,0.00363278
-0.00682751,-0.00781361,-0.000128716,-0.000890851,-0.009247,0.00115824
-0.00465416,0.00389352,-0.00225829,-0.000592723,-0.00756499,0.00443685
-0.00248343,-0.00568243,-0.00221678,-0.00152513,-0.00793993,0.00139964
-0.00457465,0.0028303,-0.00975214,0.000667185,-0.00340953,0.00301272
-0.00466858,-0.00462028,-0.000105457,-0.000342488,-0.00610009,0.00432551
-0.00148997,-0.00675259,0.00635775,0.000494078,-0.00573862,0.0048424
0.000709945,0.00069752,0.00209165,-0.00246663,-0.00557363,0.00302899
-0.0121466,0.00602929,-0.00984109,-0.00160055,-0.00969493,0.00338531
-0.00252338,0.00176342,0.00098168,-0.00320798,-0.00530681,0.00453424
-0.00250485,0.00601997,-0.00116611,-0.00214608,-0.00601703,0.00262547
-0.00252587,0.00389389,0.000981503,-0.00225186,-0.00494647,0.00253189
-0.00353904,0.0145394,-0.00653788,0.000348672,-0.00555533,0.00476366
0.00290411,0.0134718,-0.00217743,-0.000756383,-0.00544512,0.00403124
0.000696061,0.00282864,0.00316324,0.00203428,-0.00513706,0.00409383
0.00396447,-0.00889029,0.00213135,0.000754699,-0.00769591,0.00296825
0.0157854,0.0060104,0.00761469,0.000315681,-0.00797063,0.00202328
-0.000323823,-0.0131392,-0.00111892,-0.000273079,-0.00401643,0.00595725
-0.00356574,-0.00249745,-0.00224394,-0.00225922,-0.00817776,0.000857115
-0.00363349,-0.00355614,0.00419004,-0.0027912,-0.00535968,0.00424272
0.00507614,-0.00675706,-0.00106483,-0.00222556,-0.00376269,0.00223762
0.01256,-0.000377106,0.00650944,-0.00346483,-0.00436839,0.00420833
-0.00143308,0.00495167,-8.57143e-05,-0.000156641,-0.00473726,0.00445557
0.00506865,-0.00995287,6.21751e-06,0.00102518,-0.00534976,0.00420785
0.000710584,0.000694754,0.00208813,-0.00325039,-0.00803754,0.00259316
-0.00897366,-0.00248609,-0.00229582,-0.000639841,-0.0052574,0.00332499
-0.00355683,-0.000367642,-0.00331588,0.000997543,-0.00693867,0.0042659
-0.00900559,-0.00461366,0.000920819,-0.00104943,-0.00352752,0.00506318
-0.00575152,-0.00249239,-0.000122182,0.00284739,-0.00401554,0.005126
0.00394363,-0.00142977,0.00320659,-0.000418454,-0.00903296,0.00281632
0.0115501,0.00601481,-0.00100021,0.000197843,-0.00665736,0.00296259
0.00180007,-0.0088804,0.00211739,2.33948e-06,-0.00825,0.00457746
0.00935854,0.000696966,0.00219708,-0.00126521,-0.00747696,0.00328118
-0.011095,0.00177167,-0.00661046,-0.00185905,-0.0065006,0.00494999
-0.00572844,-0.00461465,-0.00225342,-0.000324801,-0.00820741,0.0010587
-0.00571097,0.000706369,-0.00440227,-0.000920296,-0.00454623,0.00273848
-0.0100287,0.0166734,-0.00661312,-0.000628427,-0.00695693,0.00180417
0.0039552,0.0102759,0.00104861,-0.000888675,-0.00609225,0.00573885
0.000697304,0.0134705,0.00207809,0.000134796,-0.00954002,0.00476766
-0.00150854,0.00175795,0.00741357,0.00157587,-0.00543165,0.00515568
-0.000438943,-0.00888834,0.00957726,0.00117357,-0.00700876,0.00487977
0.00298641,-0.00143035,-0.00858763,-0.00153016,-0.00614509,0.00593054
0.00183327,-0.0078182,-0.00109935,0.00072217,-0.00641364,0.00518143
0.00180347,-0.0110149,0.00211249,-0.000871107,-0.00638345,0.00466764
-0.00353975,-0.00781187,-0.00437042,-0.00252669,-0.00675821,0.00378132
0.000742293,0.000703542,-0.00111348,-0.000309348,-0.0038954,0.00583225
0.00289871,-0.00355987,-1.88164e-05,-0.000877157,-0.00369057,0.00428605
0.00284442,-0.00356827,0.00532515,-0.00468443,-0.00490633,0.00303024
-0.000328475,0.00282739,-0.00220626,-0.000448406,-0.00549704,0.00473726
0.00397789,-0.00143205,-9.08691e-06,-0.000435874,-0.0023452,0.00362426
-0.00249405,-0.00568516,-0.00114931,-0.000769213,-0.00435695,0.00412685
0.00178142,-0.0014294,0.00318053,0.000383437,-0.00564826,0.00525594
0.010442,0.000686641,0.00219722,-4.98891e-05,-0.00379372,0.00351286
0.00724587,0.00920517,-0.00320218,0.0026439,-0.00760373,0.0033139
0.0125678,0.00281748,0.00543683,-0.00291364,-0.0061506,0.00463063
0.00606073,0.000690042,0.00750312,-0.00248639,-0.00450176,0.00338435
-0.0100125,-0.000354368,-0.00659139,0.000250146,-0.00680628,0.00295532
-0.00681217,-0.00142352,-0.00227277,-0.000607789,-0.00389811,0.00566268
-0.00462632,-0.00248875,-0.004388,-0.000559166,-0.00739017,0.00511992
-0.00789476,-0.000357031,-0.00228453,-0.000524312,-0.00441679,0.00491285
0.000706678,0.00389122,0.00208885,-0.000174984,-0.00379345,0.00445998
-0.00900665,-0.00248934,0.000912829,0.000781983,-0.00699735,0.00506967
0.00502317,0.00281623,0.00320052,-0.000882387,-0.00702536,0.00202405
0.00935254,-0.0025053,0.00325993,-0.000973538,-0.00389522,0.00458479
0.00296287,0.0113411,-0.00753216,-0.00151362,-0.00625286,0.00199175
-0.00146941,0.00602271,0.00313437,-0.00176445,-0.00435087,0.00424176
0.00290798,-0.00037174,-0.00109963,-0.000900686,-0.00452,0.0053795
0.00176928,0.0113414,0.00316423,-0.000606611,-0.00502932,0.00447285
-0.00996958,-0.00887298,-0.00979933,-0.000131175,-0.00363111,0.00309277
-0.011107,0.013482,-0.00662061,-0.00293028,-0.00499859,0.00544089
-0.0078584,0.00815914,-0.00657619,0.00143558,-0.00299415,0.00686085
-0.000331599,0.00602048,-0.00220985,-0.00101963,-0.00153831,-0.0103253
-0.00140219,0.0177309,-0.004375,-0.00411341,-0.00649664,0.00453413
-0.00791703,0.0102892,-0.00122225,0.000977129,-0.00673026,0.00563848
0.267462,0.0462692,0.0307702,-0.00409348,-0.00240231,-0.00306857
1.74453,-0.224189,0.271553,0.183118,0.0381445,-0.0799675
1.10097,-1.21266,0.484733,0.0620897,-0.0522795,-0.0730095
0.201725,-0.604293,0.900091,-0.0921186,-0.0908904,0.122631
-0.141852,-0.240084,1.25025,-0.0405255,-0.0142974,-0.0265151
-1.11147,0.340867,0.847874,0.00525703,0.0660329,0.0875812
-0.764663,0.177972,-0.0378057,0.0916567,0.21443,-0.0421346
-2.55064,-0.367821,-0.131376,0.0375496,-0.0508692,-0.147323
-6.12278,-0.494964,-0.497218,0.0732402,-0.140576,-0.0968584
-4.65166,-0.104357,-0.371727,-0.00396772,-0.123535,0.168506
-0.355854,0.204317,-0.148831,-0.0340472,0.106721,-0.00944197
0.746816,0.533459,-0.0456579,0.00468574,0.0302342,0.147909
1.82135,0.679558,-0.0261357,-0.0217275,-0.0124869,0.0983093
0.248386,0.604105,-0.163807,0.00620796,0.00269693,-0.0623683
2.00442,0.0599248,-0.100539,0.0420149,-0.0491863,-0.19799
0.0941602,0.267854,-0.17057,0.0348399,-0.0241661,0.0385302
0.549872,0.209993,-0.00153064,-0.00328964,-0.00226879,-0.0546633
0.520292,0.0333556,-0.154801,0.0101425,0.0904428,-0.0437415
1.10768,0.243642,0.0122499,0.034727,-0.0787099,0.0318738
1.00355,0.217179,-0.265147,0.0289206,0.00911355,0.221312
0.0160556,0.0933066,-0.0267296,0.100869,-0.114924,-0.108193
-1.00446,-0.500081,0.622927,-0.0313441,-0.15153,-0.112821
-0.649762,0.068012,0.877996,-0.011508,0.101032,0.136379
-0.625594,0.234148,0.515138,0.109907,0.228273,0.0592197
1.24754,0.686377,-0.0647641,-0.0431666,0.0813364,0.0279483
3.57025,1.24677,-0.319527,-0.0420937,0.00146627,0.0400128
2.19897,0.896656,-0.896845,0.00574441,0.0757809,0.000560224
0.581354,0.487883,-0.350505,0.00467059,-0.305641,0.0975793
-0.960499,0.100352,0.187043,0.0487576,-0.0692477,-0.0633488
-0.308848,-0.0448569,0.0339606,0.0247045,0.131746,0.0577132
-0.25898,-0.0321123,0.0205991,0.00564194,-0.0280033,-0.0185309
0.0461793,0.0326016,-0.00598856,0.00218606,0.0188336,0.023034
-0.0610244,0.00393222,0.0110231,0.0104687,0.00144953,0.00679541
-0.00367117,-0.021654,0.00956033,0.00199124,-0.00493178,0.0125948
-0.0295939,0.00922709,0.00387114,-0.00019519,-0.00493154,0.00423598
-0.0156224,-0.00887269,0.0136951,0.00692318,-5.87106e-05,0.0103165
0.00594923,-0.000374014,0.018214,0.00148112,-0.00633976,0.00528908
-0.00999958,-0.0120687,-0.00658631,0.00529668,-0.00659898,0.0093931
0.080925,-0.0568399,-0.0108627,0.031152,-0.00638378,-0.0471696
0.328948,-0.131636,0.373194,-0.0278068,-0.0451971,0.0923618
-0.0814121,-0.327237,0.545409,-0.0234329,-0.0496797,0.0513272
0.132261,0.112254,0.441392,-0.0323212,0.0271944,0.107533
0.0197626,0.134824,-0.0749192,0.0530226,0.0745227,-0.0854062
-0.247226,-0.0246792,0.0335657,0.00832242,-0.00109854,0.015935
0.123662,0.0314656,0.0302174,0.005768,-0.0369045,0.0170217
0.22473,-0.0378103,0.0924677,-0.00965863,0.0300454,0.00913894
0.173828,-0.0441639,0.10046,0.00925502,-0.0160022,0.0225756
0.0684335,-0.0738784,0.0479005,0.0243655,-0.00659254,-0.0208803
-0.0369702,-0.129138,-0.00141815,0.0104889,-0.0228164,-0.000616431
-0.0854589,-0.0162641,-0.0288498,-0.000590518,-0.0193078,0.0243294
-0.128435,-0.0662555,-0.0507,-0.000213563,-0.0213482,0.01143
-0.0891523,-0.0460846,0.0171704,0.00575319,-0.00273001,-0.0030452
-0.0138567,-0.0226931,-0.0505111,0.00484468,0.00954625,-0.00522107
-0.124904,-0.0779848,0.0264459,-0.0043257,0.0174488,-0.0071159
-0.149616,-0.10032,0.0133356,-0.00594902,-0.00569394,-0.00678813
-0.142193,-0.0332637,0.0208515,0.0215117,-0.0375367,-0.00149226
-0.0147562,0.0326557,-0.0730736,0.00848289,0.0136747,-0.00128531
-0.0231917,0.0251972,0.0103643,0.00699247,-0.013695,0.00525618
0.0250351,0.0177011,0.052678,-0.00997868,0.00867409,0.0142571
0.0119145,-0.0706492,0.0750972,0.00634363,-0.00799754,0.0142264
0.135414,0.0751269,-0.0639122,0.00895081,-0.00289348,-0.005961
0.0840389,0.0496077,-0.00878626,0.00529431,-0.0246761,0.00421244
0.0707055,0.107087,0.0199097,-0.00777216,0.0106501,0.00450826
-0.00969218,0.100752,0.0564833,-0.00339264,0.0207284,0.017313
0.0830197,-0.0344857,-0.00657435,0.0145616,0.0181336,0.036677
-0.28376,0.095673,-0.104012,-0.0129738,0.0111308,0.0290973
-0.00209838,0.743748,-0.214965,-0.0161398,0.100122,-0.089716
-0.230085,-0.0310534,-0.0540291,-0.0710166,-0.0228348,0.00924432
0.983136,-0.179857,-0.239288,-0.187539,-0.10436,-0.0106677
-0.313872,0.102002,0.190082,0.112485,0.105523,0.108619
0.527813,-0.268994,-0.0173654,0.265931,0.324098,-0.172701
-0.155308,-0.0981396,-0.16661,-0.0733294,0.0216291,-0.0176516
-0.068568,0.00502944,-0.0950644,0.0212963,0.000223041,0.00809062
-0.114995,-0.0779846,0.00943065,0.00139444,-0.00786904,0.00847679
-0.0738337,-0.111039,0.109507,-0.00616276,-0.000383854,0.00216663
-0.185469,0.0721491,0.0127579,0.00877921,-0.0285478,0.00366831
0.0106128,-0.021634,-0.115554,0.0187737,0.0350353,0.0366162
-0.0809778,-0.0993139,0.0676559,-0.00645402,-0.0155679,-0.0101274
-0.137179,0.0380716,-0.0519695,0.00901349,-0.0133635,0.00357836
-0.0014089,-0.053591,0.00318933,0.00628282,0.00488862,0.00551474
-0.00838326,-0.05892,0.0502275,0.00581664,-0.00520131,-0.0068301
-0.00118509,0.0454184,-0.0279487,0.00374027,-0.00975093,-0.0128274
0.0906375,0.00595991,-0.0150946,0.0021788,0.00315854,0.00889421
0.0741681,-0.0131881,0.0104436,0.00739689,-0.0275261,-0.0043605
0.0290131,-0.00144151,-0.0157799,0.0162975,-0.0053331,0.0117705
-0.114257,-0.149312,0.0491289,0.00384842,0.00271526,0.00477612
0.00940691,-0.00249721,-0.00208444,0.00055708,-0.00352949,0.00458574
0.0117481,-0.0472019,-0.0148607,0.0113048,0.00286603,0.0153253
-0.0609624,0.0752586,-0.00189024,-0.00276284,-0.0130315,-0.00145191
-0.00861907,0.0454251,-0.0408842,0.00608253,0.000323415,0.00641608
0.0758933,-0.100493,0.060867,0.0113726,0.000929445,0.0134456
0.0546629,-0.0248903,0.01558,-0.00165926,-0.0015924,0.00349092
0.0406777,0.104991,-0.00397755,0.000626162,-0.00100151,0.00150281
0.0717724,0.0975122,0.0220813,0.00360236,-0.00354719,0.0110372
0.0288247,-0.0589288,0.0078302,-0.00372612,-0.000109613,0.0068773
-0.0243795,-0.00354115,0.0232338,0.0022026,-0.00788498,0.0066849
-0.0785072,-0.0599254,0.0344483,0.00709262,-0.0096426,-0.00151557
-0.0097545,0.0102958,-0.0322974,0.0070527,-0.00207806,0.00730574
0.00186689,-0.00887757,-0.00430459,-0.000981465,-0.00557321,0.00059396
-0.00387694,-0.0514616,0.0320765,0.00629397,-0.00990662,0.00621533
-0.0188055,0.0102855,0.00613689,-0.000657856,-0.00162426,0.00587922
-0.0153766,0.0464904,-0.0152615,0.00081408,-0.0123159,0.0150352
0.010372,0.06988,0.00213188,0.00825064,0.00472423,0.0150865
0.0532918,0.0506898,0.0358427,0.00872292,-0.00190437,0.00628519
0.166446,0.0516812,-0.0303401,0.00350475,0.00222707,0.00458038
0.416029,0.0898173,-0.0136266,0.000710785,0.00273585,0.00702155
0.308941,0.0334795,-0.00514494,-0.0121505,0.0405026,0.0256621
0.554003,-0.000773365,0.0372834,0.00495058,0.0181226,0.0390791
0.866771,-0.0233832,0.119005,-0.00978525,0.0283834,0.025706
1.31585,-0.044993,0.0909258,0.00459985,0.0280392,0.030744
0.369099,-0.0730014,-0.0600408,-0.00181985,-0.00759721,0.0353768
-0.10389,0.0316597,-0.0290943,0.00418884,-0.00625278,-0.00954539
-1.88727,-0.28529,-0.0832497,0.0405013,-0.0928671,-0.0547945
-0.835968,-0.112543,-0.119688,-0.00734414,0.0143633,0.0274893
-0.206492,0.0871184,-0.150232,-0.00585844,0.0180005,0.0130376
-0.0224624,0.214729,-0.181463,-0.0123217,0.00203845,-0.00181824
0.855371,0.271481,0.146431,-0.0420467,0.0726473,0.0153135
-0.237344,-0.186524,0.241576,0.103613,-0.0875679,0.035421
-0.544557,-0.157481,-0.0617371,-0.0429441,0.0392664,0.000338554
0.0150102,0.183818,-0.142466,0.00792423,-0.0139678,0.000298381
0.040321,0.18485,-0.0811471,-0.0183661,-0.00210822,-0.0169988
-1.55899,0.435147,-0.211938,0.115707,0.0262614,-0.193075
-3.47736,-0.347947,-0.238253,-0.0367007,-0.281463,-0.497543
-3.89636,-0.77656,-0.45886,-0.0170033,-0.23903,0.0112793
1.52743,-0.813642,-0.109354,-0.105205,0.455049,0.072763
0.601163,-0.158318,-0.114078,-0.0716035,-0.0465252,-0.00370735
1.4218,-0.230348,0.318228,0.0324482,-0.025058,0.120645
1.13984,-0.0184006,0.6853,0.0477943,-0.0388691,0.0287006
6.25617,-0.604489,0.914085,0.266568,0.323202,0.390258
6.95382,-2.0663,0.108621,0.435108,0.229581,0.153951
1.0374,-2.90477,-0.822719,0.24039,0.118821,0.0695812
-0.0632573,-1.94484,-0.932496,-0.132755,-0.111297,0.219344
-0.45717,-0.687477,-0.715497,-0.123937,-0.0874002,0.145765
-0.255198,-0.146977,-0.330426,-0.0361844,-0.10492,0.0540748
-0.179106,0.231849,-0.0943907,-0.043873,-0.00802356,-0.0141612
-0.204504,0.111574,-0.0324484,0.022456,0.00319499,-0.0343451
-0.0533667,0.0018115,0.00256115,0.005092,0.0188459,-0.0203198
-0.694524,0.180028,0.0797064,0.0319454,0.0558209,0.0980434
-1.64391,0.547874,0.452977,0.0999025,0.0896617,0.245443
-2.79233,0.9925,0.823906,0.0185718,0.12142,0.308352
-2.77196,1.34044,1.3249,0.0303497,0.0770966,0.21059
-1.28662,1.43498,1.98085,-0.0561589,-0.0314609,0.0148194
-4.56635,0.0987425,0.240427,0.0862591,0.546599,-0.52918
-0.154587,0.296816,-0.274048,-0.11836,-0.039078,-0.0677397
1.08585,0.344824,-0.0822971,0.0466766,-0.0874237,-0.357791
1.05049,0.185208,-0.201394,0.0385335,0.139122,0.0921657
2.82517,0.0912122,0.104683,-0.0345107,-0.0139075,0.0228701
0.277883,-0.0410814,0.283674,-0.0303105,-0.195761,-0.109991
-0.39015,-0.144878,0.165924,0.022576,-0.0347373,-0.00947046
-0.554576,0.0319486,0.154251,-0.0385071,-0.0300186,-0.0223662
-0.417189,0.00528438,-0.0551039,0.0167219,-0.0207194,-0.000214636
-0.161822,-0.00979904,-0.069323,-0.00477958,0.00764081,-0.00558949
-0.0342303,-0.0301454,0.0370725,-0.00409169,0.0056043,0.0137517
-0.0996899,0.0114263,-0.0151097,-0.000357583,-0.015366,-0.00614023
-0.0595788,0.0273753,-0.026438,-0.00462824,-0.00427437,0.0141284
-0.0683364,0.000766823,-0.0136623,0.000820249,0.00615275,0.00117779
-0.334061,-0.0469368,-0.0369747,0.0055342,-0.0385278,-0.0148925
-1.23065,-0.105893,-0.0181659,-0.00455038,-0.0615932,-0.044034
-0.389255,0.193759,-0.366547,0.0310606,-0.0450303,-0.000989676
0.677099,0.105633,-0.162723,-0.0573634,-0.00608164,-0.00389355
-0.157644,0.0657478,0.040935,-0.00939481,-0.105424,-0.0539858
0.0114981,0.0241115,0.00219541,-0.0176651,0.0932539,0.0356596
0.156722,0.00589511,0.0766745,0.0176096,0.0103858,0.0269071
0.185391,0.0101394,0.0234514,-0.00809076,0.00312701,0.00393176
-0.137004,0.0135749,0.0369376,-0.00448965,-0.0240706,-0.0142035
0.473699,0.188802,-0.160838,-0.0103114,0.128533,0.0673505
-0.386346,0.0137708,-0.00657318,-0.0247718,-0.0419242,-0.0140553
-0.17868,-0.0757976,-0.00198963,0.00927591,-0.0198615,0.00435817
-0.0513488,-0.0216114,0.0186691,-0.0197343,0.007741,0.00392079
-0.0442416,0.041202,-0.0466282,0.0115911,-0.00399256,0.00803393
0.0356227,0.0656235,-0.0339685,-0.0171013,-0.0019511,0.00314331
-0.0125142,-0.0205797,0.0276715,0.00853284,0.00416201,0.0119328
-0.0233216,-0.0258928,0.0275558,-0.00755617,-0.00785917,0.000751674
-0.00241859,0.0166833,-0.0107914,-0.00276677,-0.00103173,0.00734115
-0.021897,0.0113702,-0.00887123,-0.0052118,-0.00562954,0.00570023
-0.00553758,-0.00567305,-0.0204504,0.0152009,0.0167643,0.0162128
-0.0394372,0.0167004,0.0134106,-0.00590605,-0.031049,-0.00792074
0.0547535,0.0283429,0.00161722,0.0044686,-0.017976,0.00453699
0.225655,0.0292879,-0.00286517,-0.0212374,0.048312,0.0195526
0.0525144,0.0145089,0.0101771,-0.000261426,-0.0181067,-0.00169981
0.0419677,0.0304813,-0.0167378,-0.00206268,-0.00585449,0.00322539
0.306791,0.0675389,-0.0094937,-0.00488353,0.0282415,0.00898981
0.0979766,0.0208613,0.00532959,-0.00442404,-0.000246108,0.00256026
-0.0186121,-0.0184376,-0.00987603,-0.00625542,-0.024389,-0.00809944
-0.0219026,-0.00566053,-0.00671145,-0.00761694,0.00841591,0.00884372
-0.149555,-0.030048,0.000436123,-0.000924319,0.00480333,0.0107215
-0.0598104,-0.00882603,-0.000711522,-0.00244784,-0.0106185,0.00139689
-0.0025444,-0.00248238,0.00314314,-0.00908673,0.003167,0.0131891
0.00406851,-0.00355454,-0.00856621,-0.00092122,0.00316736,0.00948483
0.0169965,0.00921142,-0.0052167,-0.00205165,0.00294864,-0.000316978
0.0711271,0.00810738,-0.0110282,-0.00294164,0.0122968,0.00731802
0.0797578,0.0144946,-0.00985703,-0.000730842,0.0120162,0.0124989
0.156577,0.0197612,-0.0143459,-0.003452,0.0115293,0.0125016
-0.00142541,-0.00673993,-5.17322e-05,-0.000970244,0.00419709,0.0148932
-0.00778444,-0.0344092,-0.00973325,-0.00159547,-0.000137091,0.00562412
0.0462703,-0.00570339,-0.0112848,-0.00309587,0.00381908,0.0124891
0.0289829,-0.0174031,-0.0114734,-0.000778884,0.0172938,0.0112971
-0.0111183,-0.000344883,-0.00445074,-0.00432026,0.0122642,0.00950462
-0.0263021,0.000732468,-0.000337437,-0.00609544,-0.0122566,-0.00158697
-0.0230885,0.022009,0.000735709,-0.00345026,-0.00181276,0.0042944
-0.139892,-0.0279337,0.00696037,-0.0111275,-0.00208807,0.00341702
0.018002,-0.0184559,0.00447379,0.010151,-0.021975,0.0026328
0.0310454,0.00388428,-0.00397411,-0.00496091,0.00846773,0.00752842
0.0374365,-0.000380773,0.00573897,-0.00356072,0.00939286,0.00789958
0.0710093,0.034724,-0.00248114,-0.00467631,0.0131719,0.00857401
0.0137152,0.0230572,-0.0031187,-0.0146388,-0.0148846,-0.00124305
0.011659,-0.00567686,-0.0106047,-0.0118835,-0.0140651,8.94666e-05
0.0287599,0.00282309,0.00778481,-0.00270832,0.00394931,0.00843346
0.00617482,0.00603097,-0.00425878,-0.00210021,-0.0106758,-0.00315082
0.141453,0.0378749,-0.0177399,-0.00376053,-0.00390708,0.00362772
0.517776,0.122752,-0.026416,-0.0148079,0.0535969,0.0274083
0.0989142,0.0400244,0.0171074,-0.0112514,0.030627,0.00300598
-0.217621,-0.00550789,-0.00784766,-0.0147654,-0.00284195,0.0155597
0.0427049,-0.00996012,0.019738,-0.016531,-0.00027141,0.00204241
-0.0285328,-0.00990999,0.00714597,-0.00179398,-0.00588056,0.00646007
-0.014438,-0.00353375,0.00301491,-0.000990868,0.00225136,0.00645918
-0.00888823,-0.00246644,-0.0108383,-0.00181067,0.0133939,0.0102206
-0.0145884,-0.0205707,0.0190889,-0.00655761,-0.000755459,0.00472987
0.021417,0.0241192,-0.0158811,-0.00296289,-0.00647599,0.0035125
-0.0187826,-0.00672264,0.00511263,-0.0038338,-0.00569066,0.00319374
-0.0177476,-0.0280125,0.0115721,6.73831e-05,-0.0151224,0.0008986
-0.0737424,-0.0545858,-0.00831911,-0.00696719,0.000413477,0.00884569
0.0462474,0.0049453,-0.0102194,-0.00227663,0.00786003,0.00969553
0.0149287,0.0241277,-0.0159499,-0.0179478,-0.0189072,0.00879908
-0.0274085,-0.01843,0.00394951,-0.00898999,0.00496626,0.0147315
-0.000562158,-0.00354256,0.020311,-0.00206098,-0.00634816,-0.00419104
0.0180288,-0.0450685,0.00449925,-0.000109211,0.00664476,0.0104587
-0.0100378,0.0337189,-0.00768318,-0.00633927,-0.00147527,0.000768065
-0.0553557,0.0390818,-0.0178325,-0.00264116,0.00551352,0.00705916
-0.018955,0.0209472,0.0189991,-0.00354433,0.00299335,0.00419444
-0.0101065,-0.0439859,0.00631812,-0.00405508,0.0085679,0.0094282
-0.0327116,-0.021614,-0.00573996,-0.0127729,-0.0178395,-0.00162452
0.0466426,0.0241134,-0.0498532,0.00094676,0.0092425,0.00825894
0.0516654,-0.00570796,-0.0101534,0.00578511,0.00422767,0.0102749
0.0232051,-0.049339,0.0270433,-0.00374109,0.00772527,0.00863481
-0.00583351,-0.00247828,0.00739226,-0.0083112,-0.00800332,-0.0014652
0.00200353,0.0305245,-0.0214574,-0.00595678,-0.0110069,0.000110149
0.0212892,0.00708187,-0.0019495,-0.00106671,0.00789687,0.0091688
-0.0210513,-0.0226943,0.0168763,-0.00418186,-0.00116667,0.00500411
-0.0199179,0.00285605,0.0093716,-0.00619228,-0.00481242,0.00147271
-0.0175508,0.0337271,-0.0131203,-0.00262657,0.00220373,0.00641155
-0.00793563,0.00179353,0.000953628,0.000298783,0.000128567,0.0076949
0.00382939,-0.0131292,0.0150108,-0.00429928,-0.00162673,0.00356126
-0.0155609,0.0709832,-0.000280161,-0.00619233,0.00367731,0.00639403
0.0196552,0.266814,0.025625,-0.0142227,-0.00659633,0.00164914
0.0529769,0.255101,-0.057503,-0.000122517,0.00138965,0.00752389
-0.0399135,0.146598,-0.0573726,-0.00432023,0.00220492,0.00639439
-0.0372965,0.19341,-0.00172178,-0.0121836,0.00189272,0.00301528
0.0277794,0.305139,-0.0310748,-0.00637355,-0.00864387,0.00585473
-0.00541351,0.225336,-0.0549257,-0.00594187,0.0031127,0.00728989
0.00379509,0.0656432,0.0106508,0.00142613,0.00377953,0.0141888
-0.0356676,-0.0791094,0.0756634,0.00014025,0.00243562,0.0093596
-0.0069335,-0.164273,0.0246808,0.00253835,-0.00321469,0.0083195
-0.0421097,-0.266426,-0.0141621,0.00290945,0.00415134,0.0116497
0.00970578,-0.0024765,-0.0309732,-0.0120193,-0.0175136,-0.000247836
0.0870083,0.0666736,-0.0879818,-0.00933117,-0.00170666,0.00280285
0.00577574,-0.121712,0.0461935,0.00749835,0.0185556,0.0243722
-0.0476744,-0.261155,0.20741,-0.00895974,0.00995323,0.0072844
-0.0175445,-0.113187,0.103748,-0.00198713,-0.0152333,0.000229359
0.0199643,0.062465,-0.0876665,-0.00807357,-0.0116464,-0.00187808
0.00363015,0.0763169,-0.0782233,-0.00512147,0.00328046,0.00958842
-0.00922109,-0.0727286,0.027776,-0.00389063,0.0116811,0.0145473
-0.00924428,-0.128081,0.0353271,-0.00130108,-0.00632,0.00844663
0.00085404,-0.0578287,-0.00639261,-0.00159633,-0.0177478,0.0068143
-0.0120057,-0.00671437,-0.0226414,-0.00923109,-0.00403792,0.00394934
-0.0229571,-0.0248042,-0.00775519,-0.00154039,0.00587532,0.00885814
-0.00369961,-0.0535699,0.0149698,-0.00135157,0.00295126,0.00877166
0.0125794,-0.0354848,0.00764058,-0.00284636,-0.00476265,0.00338006
0.00113325,-0.0141715,-0.0374752,-0.00115439,-0.00466958,0.00567174
0.00885851,-0.0258803,-0.0512923,-0.0052211,0.00345969,0.00865126
-0.0637482,-0.0300892,-0.0360507,-0.00564343,-0.00256342,0.00143385
-0.0930986,0.0263454,-0.0268042,-0.00207815,-0.00337106,0.0042389
-0.128812,-0.0311103,-0.0185847,0.00460672,0.0131041,0.0161296
-0.0412506,-0.0216006,-0.0165384,-0.0102558,-0.00218672,0.00721651
0.00847033,0.00391808,-0.0170609,-0.00129306,-0.00087896,0.00638419
0.0237507,0.0741633,-0.0373052,-0.00551173,-0.0159946,0.00413787
0.0238936,0.0432958,-0.047981,0.000863671,0.0063085,0.01176
0.0319269,-0.021662,0.0174845,-0.00397742,0.00685865,0.0100949
-0.0580869,-0.0886557,0.0486643,-0.0008398,0.0031724,0.00481474
-0.0209679,-0.0205464,0.00833094,0.00293592,-0.00990802,0.00153804
0.0315355,0.0592609,-0.056474,0.00380707,-0.00962135,0.00331837
0.0141225,0.0486292,-0.0448789,-0.00429451,0.00518945,0.00503641
0.00480287,-0.052511,0.0289899,-0.00243196,0.00398698,0.00756955
-0.127933,-0.0907499,0.109975,-0.0140784,0.00580266,0.00307548
0.0746157,0.114545,0.0585179,-0.00557306,-6.27041e-05,0.00456494
0.00708257,0.042232,0.00858114,0.00462186,0.000464618,0.0123739
0.0361518,-0.201564,0.044481,0.00631493,0.0132614,0.0173113
-0.036207,0.0369424,0.0123811,-0.0128876,-0.021014,-0.0096091
-0.0054633,0.0869857,-0.140437,0.00609154,-0.00123164,0.00853664
0.0551514,-0.0259228,-0.0314992,-2.58386e-05,0.0143628,0.0113146
-0.0235723,-0.0812344,0.0565398,2.39909e-05,0.000381887,0.00659055
-0.0311003,-0.0556763,0.0500097,-0.00333261,-0.00399277,0.0028336
0.0227602,0.0273324,-0.0415483,0.000234991,-0.00635919,0.00293404
0.0236295,0.0954471,-0.0276951,-0.00183886,-0.00392506,0.0068658
0.0147229,-0.00673969,0.00657315,0.00176945,0.00299555,0.0141768
-0.0496423,-0.0173471,0.0615368,-0.00965267,-0.00899532,0.000472009
0.0320542,0.0390263,-0.000764537,0.00244555,-0.00442553,0.00609642
0.0247118,0.0145519,-0.0200992,-0.00463882,0.00202629,0.00992179
-0.0133992,-0.0194921,0.00840977,-0.00905803,-0.00705874,0.000681996
-0.00457444,0.0177647,-0.0118684,-0.0014897,-0.00410348,0.00821298
0.0160184,-0.0312168,-0.0115878,0.00153384,0.00235948,0.0100712
-0.028708,-0.0492914,0.0275379,-0.00802657,-0.00274235,0.0029825
-0.0121379,0.0241555,-0.0130335,-0.00358263,-0.00639868,0.00577348
0.00209071,-0.0258791,-0.0245971,-2.0951e-05,0.00287357,0.00855494
-0.0112769,-0.0365206,0.0138117,-0.00536203,-0.0027248,0.00486183
-0.00781956,0.00924557,-0.0108331,-0.00470984,-0.000251263,0.00464618
-0.00241068,-0.00671646,-0.00967352,-0.00155535,0.00310031,0.00726014
0.00173079,-0.000345108,0.00748839,-0.0054346,-0.00145727,0.00394106
0.00399256,0.0113688,-0.00320005,-0.000724763,-0.000610262,0.00476718
0.00282322,-0.0014055,0.00643697,-0.0031679,-0.000267088,0.00572854
-0.0014274,-0.00779118,-3.38722e-05,-0.00332186,-0.00304273,0.00440627
-0.0100433,0.00180138,-0.00441758,-0.0019719,-0.000435948,0.00565541
-0.000312354,0.0252093,-0.00647663,-0.000122786,-0.00317016,0.00883901
0.0147557,0.027326,0.000117077,0.00150174,-0.00308996,0.00722671
0.00506851,-0.129143,0.0108732,0.000744641,0.00624439,0.0114971
-0.0435676,0.0742129,-0.0112914,-0.00538015,-0.00671503,0.00100118
0.0378629,0.062447,-0.0414139,0.00139406,0.00274459,0.00777727
0.0136229,-0.14618,0.0216985,0.00111136,0.00745076,0.0123956
-0.0527249,0.0124612,0.0432655,-0.0140326,-0.0178064,-0.0039559
0.00798844,0.110377,-0.0846335,0.00279218,0.00644854,0.0117412
0.0560548,0.00494919,-0.0175916,0.00554717,0.0161698,0.0174698
-0.0161366,-0.138724,0.0748851,-0.0092831,-0.00102529,0.000626683
-0.029602,0.0869721,-0.0036535,-0.00286955,-0.0109788,0.000751913
0.0325988,0.0752354,-0.0564672,0.00403938,0.00759828,0.0125002
0.00797931,-0.10999,0.0408705,0.00175315,-0.000740886,0.0085234
-0.0181892,0.0635374,0.0446867,-0.00719088,-0.00676501,0.000130355
0.0390487,0.0454252,-0.0499387,0.00743786,0.00411001,0.0138892
0.000259977,-0.115313,0.0557748,-0.0095391,0.00679773,0.00637019
-0.0236185,-0.0131065,0.0543324,-0.0038895,-0.0105695,0.0033133
0.0220862,0.0347906,-0.0811845,0.00152707,-0.00447986,0.00410151
-0.00306976,0.00819356,-0.0514584,-0.000612855,0.000113964,0.00443089
-0.0245007,-0.0216181,0.0361271,-0.00640091,-0.00155601,0.00520825
-0.025415,-0.0439643,0.0222238,-0.00130618,0.00460407,0.00776613
0.00939004,-0.0248272,0.00118096,-0.000657499,-0.00441721,0.00327069
0.0193744,0.045432,-0.0298212,0.00221644,-0.00893947,0.00381863
0.0237526,0.0709757,-0.0372946,-0.00139922,3.43025e-05,0.00741041
0.0221962,0.00922506,0.0141437,-0.00175667,0.00489306,0.00915331
-0.00745066,-0.0290883,0.0609541,-0.000868678,-0.00414374,0.00790668
0.00791617,-0.0024765,0.0364821,-0.000690132,0.000324816,0.00844896
0.0190334,-0.0269633,0.0098608,0.00320747,-0.00254634,0.00425774
0.0181768,0.0166873,-0.0158889,0.000338227,-0.0122663,0.00314689
-0.0031771,0.0145792,-0.0418279,-0.0049817,0.000680804,0.00780791
0.0029802,-0.0365247,-0.00529773,0.00184661,0.00214073,0.0075447
-0.0318859,-0.0375746,0.0199996,-0.00154239,0.000906289,0.00320506
-0.0447369,-0.0386256,0.00807837,0.000746399,-0.00118321,0.00558245
-0.00901468,-0.0248089,0.00312052,-0.00214468,-0.0095425,0.0019421
0.0249303,0.0284066,-0.0425813,0.00118649,-0.00293589,0.00685734
0.00644188,0.0592795,-0.0353369,-0.00327489,0.00034821,0.00489438
0.014716,-0.00247045,0.00658334,0.000136763,-0.000353098,0.00796264
0.0153695,0.000709873,0.0472721,-0.000243068,-0.00190389,0.00374806
-0.00265139,-0.0450463,0.0171265,0.00261647,-0.00055477,0.0120992
-0.0245307,-0.037581,0.0404321,-0.00813,-0.00833386,-0.00104934
0.0356384,0.0677727,-0.0360868,0.00695515,-0.0159898,0.00495344
-0.0258201,-0.0716229,-0.0398534,-0.00349741,0.00535315,0.013694
-0.0491715,0.0263083,0.012246,-0.0193031,-0.00680995,-0.00585568
0.0193362,0.082692,-0.0298537,0.000235453,0.00406325,0.009516
0.00941614,-0.152561,0.01095,-0.000964254,0.0109857,0.00973439
-0.0377698,0.0252273,0.0594929,-0.00469418,-0.00744426,-0.000167966
0.0239895,0.0688527,-0.0597745,0.0119571,-0.00450492,0.00995111
-0.00127968,-0.0460985,-0.0106878,-0.0129412,0.00209591,0.00384277
-0.0223869,0.0369317,0.0350294,-0.00668845,-0.00282907,0.00314879
0.000864089,-0.0152347,-0.0117702,0.00855845,-0.000631392,0.0149465
-0.00262902,-0.0461057,0.0149922,-0.00887723,0.00118804,0.0024581
0.0018305,0.0763117,-0.0097037,-0.00689927,-0.000208884,0.00473899
0.0302769,-0.000345047,-0.0339329,0.00502199,0.00611994,0.0107161
0.00803009,-0.0493111,0.0301058,-0.00202824,-0.00136057,0.00339353
0.0189536,0.0305167,0.0119437,-0.00315692,-0.0105891,0.00225449
-0.00550776,0.0241659,-0.0268628,-0.00490208,-0.0038828,0.000611722
0.0038464,-0.021633,0.0139636,-0.015577,0.000682592,0.00762057
0.0152572,0.00176922,0.0579738,-0.00487995,-0.0128228,0.00595599
0.0185262,0.0252115,-0.0501563,-0.00937071,-0.000981867,0.0072549
-0.00366669,0.0337311,0.00312123,-0.00304484,0.00483301,0.0105137
-0.0124055,-0.0343901,0.018082,0.00320044,0.000236541,0.0135391
-0.00376647,-0.0237506,0.0181709,-0.00976869,-0.00254747,0.0043574
0.0063497,0.0156403,-0.0224372,-0.000934243,-0.00997406,0.00403047
-0.0108442,0.0103331,-0.0322632,0.00962958,0.00132635,0.00675392
0.00490194,-0.0407946,0.0182782,0.00356203,-0.000430524,0.00905907
-0.0231271,-0.0365056,0.00940121,-0.00282574,-0.0016171,0.00470597
0.00198354,-0.00990684,-0.016039,-0.00220697,-0.00156054,0.00815719
-0.00237602,0.00392681,-0.0139697,-0.00157458,-0.00135964,0.00601768
-0.00129407,0.00392294,-0.0139613,0.00105023,0.000591666,0.00737953
-0.00375103,-0.00565394,0.014941,-0.00149399,0.00237805,0.00722957
-0.00572869,-0.0450341,0.00103828,0.00181559,-0.00211361,0.00758803
-0.00571743,0.0443831,-0.00868691,-0.005582,-0.00661469,0.00161666
0.0192125,0.0390434,-0.0137532,0.00277726,0.00343651,0.00967455
0.00700282,-0.0812422,0.0279863,-0.00650863,0.00644884,0.0054484
-0.00580993,0.0582208,-0.00120467,-0.00157942,-0.00592437,0.00362349
0.00866612,0.00924612,-0.0363357,0.00548229,0.00186324,0.00957954
-0.0156743,-0.0535513,0.0223441,-0.00729103,-0.00452006,0.00119668
-0.00674012,0.0624887,-0.0162024,0.000296205,-0.00727248,0.00434661
0.0095385,-0.0290764,-0.0127258,0.0060012,0.0019677,0.0128677
-0.0136885,-0.0439795,0.0384143,-0.00863573,-0.00813282,-0.00223351
-0.00328586,0.0667394,-0.0365237,0.00334527,-0.00538424,0.0055151
0.0041434,-0.0514261,-0.0116937,0.00723255,0.00244382,0.0131121
-0.0158821,-0.0344019,0.0405167,-0.00592346,-0.00543594,-0.00180483
0.00317365,0.0827047,-0.0353912,0.00158966,-0.00131363,0.00519925
0.0215427,-0.0173697,-0.024375,0.00587715,-0.00234938,0.0100062
-0.017051,-0.0056493,0.0458447,-0.00524344,-0.0107436,-0.000836313
0.016082,0.0603371,-0.0266599,0.00542068,-0.00304833,0.00491798
0.00729861,-0.0631419,-0.00201228,0.00182779,0.00111097,0.0105933
-0.0135735,0.0188328,0.0212279,-0.00557476,-0.0074366,-0.000637412
-0.00103499,0.0571574,-0.0439864,-0.00021103,0.00319389,0.00860929
-0.0274409,-0.0588561,0.0104456,0.00279355,0.00014472,0.00493419
-0.019063,0.0230959,0.0286604,-0.00589958,-0.00824857,0.00282001
0.0161497,0.0592761,-0.03308,0.000557393,-0.00118971,0.00862634
-0.00149047,-0.0599379,0.010743,-0.0013345,0.00197637,0.00722027
-0.0145779,0.0305492,0.0126447,-0.0050417,-0.0049566,0.00373292
0.0193278,0.0241445,-0.023372,0.00208098,0.00468802,0.0108975
-0.00483458,-0.0822934,0.0225035,-8.44002e-05,-0.000879914,0.00477797
-0.0144864,0.0401296,0.00299702,-0.00332531,-0.00549224,0.003811
0.0291229,0.0156251,-0.0286034,0.000834256,0.00460827,0.0109094
0.00911566,-0.0769842,0.0322924,-0.00431636,0.000929445,0.00457913
-0.0155563,0.0731318,-0.00132828,-0.00567058,-0.00706965,0.00218934
0.0215426,0.073108,-0.0330353,0.000485107,0.00377494,0.0106701
-0.0114387,-0.0769711,0.0331279,0.000836372,0.00387418,0.00875592
-0.0256953,-0.000319091,0.0446723,-0.00766192,-0.0085187,-0.00235611
0.00427787,0.0475806,-0.0342678,0.000417396,0.00588351,0.00998861
-0.00139679,-0.0631335,0.00217598,0.00113444,0.00356129,0.00897044
-0.0307606,0.00713704,0.0114059,-0.00920941,-0.00899309,-0.000476062
0.0010073,0.0305468,-0.0300098,0.00735612,0.00194108,0.00834841
-0.000421188,-0.08123,0.0139867,0.00208956,-0.000952065,0.00708908
-0.0177356,0.000746338,0.00728282,-0.0106404,-0.00509787,0.00200266
-0.0117316,0.0401443,-0.0537171,0.000616416,0.00165561,0.0073024
-0.00480148,-0.0482293,0.0160455,0.00302726,0.000845909,0.0103918
-0.000655085,-0.0152369,0.02998,-0.00348496,-0.00731474,0.00228506
0.0212865,0.0486229,-0.0062406,-0.000827029,0.00208426,0.00637227
0.0361211,0.0166661,0.0260759,-0.00155145,0.00225744,0.00625098
0.031655,0.0454093,0.0367068,-0.00382501,-0.00259191,0.00403547
0.0371815,0.0485998,0.024986,-0.00180683,-0.00182307,0.00774342
0.0221128,0.0251914,0.0205524,-1.70171e-05,-0.00292534,0.00369942
0.00186249,0.0113761,-0.00643007,0.000923216,-0.00339052,0.00725931
-0.0311151,-0.025845,-0.0549511,-0.00646615,-0.011095,0.0260194
-0.0730883,-0.077959,-0.0692815,0.00343296,-0.00582361,0.00577676
-0.0934504,-0.112012,-0.0834087,0.00432046,-0.00947267,0.00536478
-0.111835,-0.098156,-0.0846964,0.00158361,-8.33571e-05,0.0063557
-0.0969389,-0.0694323,-0.0642132,-0.000840604,0.00477129,0.0168728
-0.0507935,-0.0226411,-0.034832,-0.00424549,0.00362289,0.00383598
0.0167798,0.0177515,0.0140825,0.0038107,-0.00349841,0.00693375
0.0747621,0.064537,0.0489569,-0.0046438,0.00491139,0.00680596
0.111131,0.13369,0.0803477,-0.00794965,0.00699916,0.00507873
0.14645,0.149622,0.113925,-0.00515984,0.00176507,0.00747079
0.160259,0.137903,0.138728,-0.00189176,-0.00398415,0.00285178
0.133263,0.148563,0.134121,-0.00616997,0.00210443,0.00751245
0.104748,0.118797,0.0717287,-0.000568479,-0.00522941,0.0087989
0.0586988,0.0645579,0.0337915,0.000768006,-0.00078246,0.00634903
-0.0186885,-0.0258664,-0.00234358,0.00353506,-0.00614804,0.00552428
-0.0591635,-0.101399,-0.0541207,0.0045172,-0.0095447,0.00781369
-0.105257,-0.166289,-0.086699,0.00335085,-0.00570887,0.00665492
-0.151383,-0.187533,-0.12039,0.00577989,-0.013825,0.00124341
-0.180287,-0.175792,-0.149635,0.000679672,-0.00278294,0.0042541
-0.18145,-0.149181,-0.144321,0.000572041,-0.000256509,0.00489098
-0.122647,-0.10986,-0.0837397,-0.00184973,0.00269261,0.00748909
-0.0627046,-0.0609547,-0.0295759,-0.00902955,0.00725156,0.01057
0.0220936,0.0315853,0.021626,-0.00598119,0.00383529,0.00379825
0.119881,0.100689,0.0740587,-0.00590664,0.00592485,0.00717843
0.172208,0.150666,0.132422,-0.00900234,0.00375357,0.00611532
0.224628,0.196389,0.182226,-0.0074926,0.00397831,0.00556785
0.218123,0.214486,0.182129,-0.00295046,-0.000916362,0.00453424
0.161133,0.200698,0.152589,-0.00265822,0.00183761,0.00597429
0.111252,0.14647,0.0674922,0.0129752,-0.0140873,0.00184679
-0.0340785,-0.0652421,0.0253663,0.00169313,-7.83801e-06,0.0092212
-0.0990423,-0.140746,-0.0630899,0.00661635,-0.0140735,0.00458074
-0.156379,-0.183261,-0.160067,0.00593024,-0.00807086,0.00864846
-0.241181,-0.253432,-0.213414,0.00206774,-0.00776771,0.0077799
-0.25092,-0.166141,-0.221111,-0.00363612,-0.00652206,-0.000391543
-0.174391,-0.0725292,-0.206418,-0.00352325,0.000372708,0.00456262
-0.106403,-0.0800603,-0.0889321,-0.00474846,0.00794539,0.00806212
-0.0243162,-0.0524713,0.0211857,0.000485033,0.00644177,0.00759965
0.0703394,0.0506982,0.059626,-0.003785,0.000402391,0.00388598
0.141356,0.114513,0.0871432,-0.00584713,0.00404304,0.00563848
0.15687,0.149609,0.151523,-0.00934193,0.0085398,0.00677371
0.160945,0.142149,0.176204,0.000871569,0.00607356,0.00930542
0.165838,0.167701,0.119478,0.00308448,-0.00796184,0.00562268
0.102706,0.143286,0.0577628,-0.000338674,-0.00420243,-0.00983477
0.0264321,0.0731012,0.0162852,-0.0170996,0.00676411,-0.00341266
-0.0499476,-0.0119982,-0.0134131,-0.0110106,0.00153545,0.00521338
-0.0477424,-0.066286,-0.0122614,0.0047386,-0.00745139,0.00394344
-0.0400118,-0.0833171,-0.0260731,0.00627977,-0.00494429,0.0115242
-0.0560021,-0.0992664,-0.0465814,-0.00445446,-0.00622025,0.00733095
-0.0808134,-0.0886055,-0.053302,-0.0160276,-0.000938803,0.00205225
-0.0755685,-0.0737058,-0.0393321,-0.00956479,0.00221348,0.00658071
-0.0516457,-0.0630783,-0.0529948,-0.00308399,-0.0112209,0.00655502
-0.0193088,-0.0183973,-0.0473207,0.0016171,-0.00180116,0.00514925
-0.0453113,0.000781122,-0.0444225,0.00985722,-0.0116367,0.00989431
-0.00990865,-0.0343785,-0.0140046,0.00599943,0.00232482,0.00550032
0.0039318,-0.0312006,0.00649272,0.00189939,-0.00418937,0.00401688
0.0215275,0.0305357,-0.02763,-0.0110395,0.00205398,0.00334406
-0.0218395,0.0135333,-0.0152555,-0.0150681,0.00278163,0.0096668
-0.00938191,-0.0173582,0.0373821,-0.000762701,0.00276965,0.00811863
0.00401532,0.0188353,-0.00640092,0.00599739,-0.0108882,0.0037142
0.0233244,0.0156231,0.00881027,0.00103767,0.0011279,0.00720084
0.0210828,0.00497949,0.0173631,0.00319049,0.00226253,0.00629997
0.0135716,0.0252143,0.0097661,-0.000808343,-0.000127047,0.00330985
0.0038795,0.0103115,0.00751942,-0.000161186,-0.00530556,0.00387514
0.00934654,0.00604818,0.00222847,-0.00193846,-0.00292775,0.00257289
0.005046,0.00180357,5.46519e-05,-0.00243601,-0.00158066,0.00556815
-0.00473466,-0.00351781,0.00529643,-0.00335303,-0.000401288,0.00615144
0.00179957,0.00499721,1.19703e-05,-0.0017186,-0.00419927,0.00516272
0.00188063,0.00286738,-0.00748355,-0.000145987,-0.00175822,0.00854176
0.00393692,0.00818664,0.00217211,-0.00180271,-0.00062421,0.00262618
0.00508165,0.0113827,-0.00424003,-0.00201124,-0.000632048,0.00638187
0.00286444,0.009258,0.00109563,-0.00170462,-0.00550404,0.00669193
0.00183199,0.00606278,-0.00320048,-0.00358085,-0.00372067,0.00499421
-0.00357444,0.0060677,-0.00326056,0.000582919,-0.000365078,0.00585514
-0.0079144,-0.00138059,-0.00116053,-0.00064452,-0.000236928,0.0056026
-0.0100688,0.0135213,-0.00334464,0.000378221,-0.00445646,0.00655925
-0.00359443,-0.00671006,-4.02993e-05,-2.85804e-05,-0.00285578,0.00726187
0.000766546,0.00180445,-0.00428101,-0.00256737,-0.00158116,0.00565672
0.00823707,-0.00139386,0.00544716,0.00012216,-0.00121906,0.00778401
0.000619788,-0.0194876,0.0118007,-0.00275132,0.00226471,0.0051046
0.00294679,0.00606278,-0.0064,-0.000613675,-0.00472108,0.00495481
-0.000373784,0.0156444,-2.20118e-05,0.00170302,-0.00322443,0.00728357
-0.00693432,-0.0226761,0.0106464,-0.00138116,-0.000432432,0.00677127
0.00286863,0.00500045,0.00110028,-0.0012984,-0.00262135,0.00407559
-0.00574524,-0.00883006,-0.00112428,-0.00102299,-0.00126135,0.00322294
-0.00250293,-0.00776646,-0.00108664,-0.000624582,-0.00226173,0.00676322
0.00608126,-0.00672043,0.00542057,-0.00215149,-0.000638992,0.00633949
0.00917013,0.000733575,0.0193785,-0.00307691,0.000660211,0.0060879
0.0199854,0.0209479,0.0173357,-0.00360656,-0.00454828,0.00466871
0.030845,0.0411651,0.0110128,-0.00333288,-0.000681132,0.00346738
0.0234371,0.035857,-0.00404963,-0.000721604,-0.00316229,0.00555557
0.00599838,0.00712432,0.0118408,-0.00617406,0.000362754,0.00602663
-0.00576019,-0.00563447,-5.37569e-05,0.00281826,-0.00332069,0.00571054
-0.00787811,-0.0152184,-0.00328826,0.00162354,-0.00385448,0.00439113
-0.00464567,-0.00351353,-0.00326556,-0.0032433,-0.0025298,0.0057683
-0.0142923,-0.00989066,-0.0108628,-0.000349998,-0.000463575,0.00605363
-0.00790247,-0.0130906,-0.00114999,-0.00286573,-0.00461751,0.00357831
-0.00143571,-0.00351581,-1.58697e-05,-0.00329447,-0.0024097,0.00402743
-0.00462586,-0.00138222,-0.00540653,0.00234145,-0.00521597,0.00599235
0.00180227,0.000746112,2.48244e-05,-0.00338516,-0.00356963,0.00578642
-0.0014541,-0.00777297,0.00213114,-0.00196221,0.000611246,0.0078088
-0.00142673,-0.000326444,-0.00109512,0.000403374,-0.00317773,0.00591367
0.00396511,0.000742978,4.73727e-05,-0.00438389,-0.000766069,0.00584233
-0.00360697,-0.00670449,0.00103771,-0.00299755,-0.000487983,0.00686377
-0.00565551,0.00287807,-0.0107756,-0.00112379,-0.00597653,0.00386018
-0.00358694,-0.00351425,-0.00111135,-0.00254282,-0.000605702,0.00561213
-0.00357487,0.00500969,-0.00325129,0.000683635,-0.00206655,0.00266242
0.00396784,0.00925866,-0.00103213,-0.00293484,-0.000735879,0.00679028
0.00179023,0.0039291,0.00107933,0.000427246,-0.00255314,0.00429225
0.00403858,0.00606502,-0.00745482,0.00243461,-0.00221583,0.00620884
0.00175057,0.00925401,0.00429007,-0.0034776,-0.000207573,0.0049969
-0.00247275,0.00713559,-0.00538587,0.00145906,-0.000198334,0.00681227
-0.00143976,-0.000318722,-1.43778e-05,0.000807732,-0.00537187,0.00387037
0.000728871,0.00500104,-0.00106736,-0.00426471,-0.000630528,0.00555736
0.00189207,-0.00990037,-0.00746335,-0.000529379,-0.0014627,0.0128105
-0.00257991,-0.0194811,0.00748551,-0.00145599,-0.00536415,0.00666529
0.00286338,-0.0120318,0.00325811,0.000374079,-0.00577718,0.00597268
0.00613008,-0.00244894,7.89752e-05,0.000388682,-0.00549212,0.00673157
0.00392094,-0.000320402,0.00433354,-0.00319481,0.00187126,0.00483251
-0.0025689,-0.00777297,0.00533066,-0.00170085,-0.00163603,0.00601649
0.00286526,-0.00245261,0.00217637,-5.68926e-05,-0.00304985,0.00584054
-0.000387313,-0.00564019,0.0032181,-0.00180292,-0.00335139,0.00545716
-0.00573111,0.000744822,-0.00328247,0.000365794,-0.00543925,0.00499266
-0.00357696,-0.00456861,-0.00216838,-0.00100055,-9.00328e-05,0.00625354
-0.00251759,-0.00351224,-2.46037e-05,-0.000918269,-0.00187972,0.00526738
-0.000333872,-0.00138868,-0.00214888,-0.00129101,-0.00194454,0.00576329
-0.00575976,-0.00457646,-6.30245e-05,-0.000569046,-0.00337154,0.00584704
-0.000417744,-0.00777422,0.00642653,-0.00266644,0.00237846,0.00635952
0.00501777,-0.00351956,0.00327175,0.000777751,-0.00356737,0.00561249
0.00827006,-0.0013906,0.00223851,-0.0039932,0.00105929,0.00616467
-0.00690201,-0.0109628,0.00635622,-0.00240125,-0.000689179,0.00621796
-0.00675862,0.00287619,-0.00864941,0.00054121,-0.00492758,0.0061202
-0.000408902,-0.00776382,0.00536883,-0.00290649,-0.000386178,0.00750893
-0.00143607,-0.00457413,-6.99237e-06,-0.0013009,-0.0038102,0.00473398
-0.00251138,0.00074896,-0.00109555,-0.00301002,-0.000806689,0.00803584
0.000745241,-0.000320402,-0.00213184,-0.00150408,-0.00282875,0.00606245
0.00611442,0.00286943,0.00113955,-0.00141257,-0.00223941,0.00613445
0.00720671,0.00286951,8.19936e-05,-0.00215144,-0.00144756,0.00669521
0.00179101,0.000746152,0.00109581,-0.00185637,-0.00489426,0.00635803
0.0018142,0.0124502,-0.00213511,-0.00193287,-0.00336531,0.00524718
-0.00680134,0.0113939,-0.00544265,-0.00241767,-0.000901729,0.00577056
-0.00142168,0.0145871,-0.00323794,0.000140458,-0.00302523,0.00402939
-0.000329114,0.0145859,-0.00429706,0.000200003,-0.00118637,0.00556839
-0.000362244,0.0145833,-0.00108763,-0.000957936,-0.00512162,0.00620383
0.00503478,0.0124507,4.7124e-05,-0.00199664,-0.00204152,0.00597316
0.00394327,0.0113874,0.00110731,-0.0014112,-0.00254646,0.00633121
0.00938823,0.00606246,-0.0020371,-0.000720471,-0.000272244,0.00577974
-0.000365865,-0.00457581,0.00107507,-0.00305304,-0.00121072,0.00479764
-0.00568725,-0.0109574,-0.00647471,-0.00105354,-0.00257486,0.00579202
-0.00575866,-0.0173482,0.00102308,-0.00296497,0.000187218,0.00637096
-0.00468796,-0.0184118,0.00210933,-0.00284269,-0.00106904,0.0051958
-0.00682744,-0.0194723,-5.29401e-05,0.000785977,-0.00443262,0.00608385
0.00392296,-0.0130961,0.00541457,-0.0016084,-0.00182539,0.00554383
0.00287009,-0.00777279,0.00218443,-0.00198069,-0.000244796,0.00722891
0.000719532,0.00181322,1.38516e-05,-0.00439014,-0.00264099,0.00388902
-0.00258446,0.00607245,0.00532618,-0.00175577,-0.000359833,0.00535607
0.00172504,0.000739638,0.0075131,-0.000442356,-0.00298464,0.00485611
0.00285496,0.00713065,0.00217069,-0.00184575,-0.00216818,0.00683105
0.00934015,0.0103153,0.00223592,-0.00161648,-0.00251853,0.00643051
0.00285414,-0.00351304,0.0032535,-0.000776768,0.00106254,0.00649619
0.000724219,-0.00138663,8.8457e-06,-0.00242814,-0.00165758,0.00417304
0.00502576,-0.00138575,0.00220489,-0.00229245,-0.0009619,0.00529122
0.0094182,-0.00244874,-0.00416468,0.000588745,-0.00226688,0.00660276
0.000740092,-0.00670592,-0.0010529,-0.00193214,-0.000467777,0.00730872
-0.00143695,0.0071368,-0.00108735,-0.00289005,-0.00615224,0.00588226
-0.00362739,0.00181404,0.00210369,-0.000217587,0.000858068,0.00820887
0.00498858,0.00180869,0.00541581,-0.00165859,-0.00140172,0.00579774
0.00614499,0.0060627,-0.00207659,-0.00188091,-0.00103793,0.00589919
0.00393106,0.000744329,0.00326188,-0.00106609,-0.00274214,0.0064736
-0.000303654,-0.00031358,-0.00534922,-0.000246525,-0.00185171,0.0060516
-0.000352017,0.00394045,-0.00107464,-0.00141814,-0.00511181,0.00504917
-0.00138966,0.00606694,-0.00537685,-0.00114504,-0.000722528,0.00478673
-0.00780755,0.0135304,-0.0129449,-0.00167477,-0.00137606,0.00581282
-0.0100399,0.0167216,-0.0065518,0.00147256,-0.00248176,0.00625175
-0.00574147,0.00820868,-0.00327391,-0.00255257,-0.000773042,0.00567794
-0.0014432,0.013523,-0.00109452,-0.00221848,-0.00268203,0.00481671
0.00726274,0.0145775,-0.00635678,-0.00229996,-0.00267708,0.00698233
-0.00035223,0.00288152,-0.00106654,-7.78139e-05,-0.00193989,0.00597036
-0.000391432,-0.00138294,0.00321305,0.000789016,-0.00227275,0.00602901
0.00395005,-0.00776806,0.00220372,0.000434011,-0.00095886,0.00571376
0.00496095,-0.0152241,0.00971482,-0.00233418,-0.00149074,0.00420409
-0.00150304,-0.00563619,0.00642269,-0.00153029,-0.00111756,0.00558728
0.00182457,0.000746951,-0.00211597,0.000206739,-0.0017055,0.00672817
0.00176385,-0.00458158,0.00430704,-0.00102192,-0.001553,0.00732774
0.00499241,-0.00138747,0.00541549,-0.000414938,-0.0031966,0.00651449
-0.00365718,-0.00244247,0.00532246,-0.00123659,-0.00195137,0.00568718
-0.00251688,-0.00563503,-1.46618e-05,0.00188434,-0.00329894,0.00632691
0.00397036,-0.00457904,5.30891e-05,-0.00118914,0.00199586,0.00684083
0.00396724,-0.00138595,4.95026e-05,0.00117671,-0.0017361,0.0074296
0.00719165,-0.00458167,0.00223141,-0.00159416,0.000327706,0.0074712
0.00175117,-0.0045754,0.00538584,-0.00144547,-0.00170329,0.00661814
-0.00247967,0.0018176,-0.00430409,0.000665724,-0.00162813,0.00660765
-0.00578234,-0.00563593,0.00208625,-0.00206709,-0.00235882,0.00552338
0.00292442,0.00394254,-0.00424497,-0.0023686,-0.00302222,0.00498968
-0.00248794,-0.00137483,-0.00322874,-0.000727057,0.000393182,0.0059303
0.000653131,0.000748693,0.00644041,-4.20809e-05,-0.00239059,0.00506496
-0.00358179,0.000751561,-0.00217644,0.000433832,-0.00233924,0.00559258
-0.00146774,0.0050043,0.00212304,-0.000863135,-0.00357094,0.00557131
0.000736896,-0.00457238,-0.00104918,1.32024e-05,-0.000542223,0.0066101
-0.00145645,-0.00670298,0.0021371,-0.00234026,-0.00147128,0.00673133
-0.00243749,0.0050093,-0.00859317,0.000815839,-0.0050562,0.00430942
-0.000340903,0.00394102,-0.00214484,-0.000979394,-0.000710607,0.00690603
-0.00572922,0.00820434,-0.00435036,-0.000482917,-0.0015043,0.00566417
0.000755609,0.0113905,-0.00428318,-0.000237048,-0.000905097,0.00678682
0.00184914,0.0199127,-0.00641204,-0.00174245,-9.23872e-06,0.00398648
0.0018801,0.0124571,-0.00855201,-0.00107792,0.000468045,0.00709337
-0.00145382,0.0135203,-2.70549e-05,-0.00203288,-0.00284123,0.00684214
0.00721747,0.00287162,-0.000986254,0.000772685,-0.000707567,0.00731415
-0.00147278,-0.0130888,0.00428663,0.000212163,-0.0028874,0.00703144
0.0039296,-0.0098966,0.0043482,-0.00182977,-0.00419861,0.00533271
-0.000350064,-0.00883494,6.78562e-06,0.00080812,0.000221938,0.00658178
-0.00472084,-0.00776834,0.00423908,-0.00132728,-0.00241607,0.00392902
0.00289747,-0.00244597,-0.00102798,-0.00300103,-0.00093767,0.00595433
-0.00363374,-0.00244655,0.00317542,0.000608444,-0.00279805,0.00512481
-0.00034662,-0.000322327,-0.00107662,0.000283569,-0.0031718,0.00471592
0.00286007,0.00180925,0.00217719,-0.000961542,-0.00324267,0.00726664
0.014754,0.00179954,0.00231077,-0.00249633,0.00292212,0.00737607
0.0039193,0.000746522,0.00433559,-0.00110686,-0.000447631,0.00564289
-0.00145414,0.00181455,0.00105994,0.00064826,-0.00441536,0.00482756
0.000676211,0.000746152,0.00429533,-0.00311223,-0.00160715,0.00573051
-0.00471055,0.00394285,0.00208813,-0.00267237,-0.00175083,0.00565171
-0.00245361,-0.000317555,-0.00645173,-0.00261375,-0.000659823,0.00452602
0.000701991,-0.00350749,0.00216309,-0.00131485,-0.000971496,0.00647533
-0.00256024,0.00288543,0.00319562,-0.00202274,-0.00302029,0.00597954
0.000743749,-0.000313949,-0.00212364,5.85318e-05,-0.00292394,0.00596929
-0.00147196,-0.00244507,0.00320382,-0.000159621,-0.0045754,0.00420183
-0.0024922,0.00288303,-0.003233,-0.00127327,-0.00360173,0.00708866
-0.00899238,-0.0066932,-0.00115613,-0.00391605,-0.00422934,0.0107812
-0.00359877,-0.00351175,-3.72445e-05,0.000543326,-0.00210235,0.00595897
-0.000376625,-0.00457792,0.00214332,-0.00158089,-0.00411612,0.00842702
-0.0079127,-0.00350767,-0.00115606,-0.0017105,-0.00171155,0.00506949
-0.00572454,0.00288477,-0.00434152,-0.000228137,-0.00195244,0.00695789
0.00286125,-0.0109628,0.00326291,-0.00255105,-0.000279665,0.0059737
-0.00471051,-0.00882425,0.0031801,-0.00241956,-0.00156009,0.00466347
-0.00141409,0.00713518,-0.00323126,0.000402004,-0.00265473,0.00561023
0.00285159,-0.00138227,0.00325371,-0.00121352,-0.00144026,0.00691193
0.00611194,0.00394004,0.0011463,-0.00175491,-0.00313392,0.0040369
-0.000357095,-0.00244538,3.90969e-06,-0.00145224,-0.0014084,0.00460994
0.00937917,0.0028734,-0.000957457,-0.000766546,-7.20024e-05,0.00962937
0.00290421,0.0124601,-0.00318017,-0.00489527,0.00575012,0.0110604
-0.0101007,0.009274,-0.000114158,-0.00273108,0.00102997,0.00750238
-0.00677822,0.0199187,-0.00865239,-0.0012843,-0.00300989,0.0050956
0.00183522,0.0124566,-0.00426887,-0.000906348,-0.00011009,0.00705308
-0.00250872,0.0103248,-0.00218159,-0.00161582,-0.00139493,0.00571042
-0.0035069,0.00394774,-0.0096726,-0.00174952,-0.00192559,0.00649887
-0.000387703,0.00606858,0.00213501,-0.0022682,-0.00302172,0.00531173
-0.00144661,-0.00563701,0.00106701,-0.00235653,-0.00127408,0.00765419
-0.00476122,-0.0237348,0.00961036,-0.001638,0.00180981,0.00167859
0.00391969,-0.0109622,0.00541868,-0.00353763,-0.00315535,0.00503772
0.000716443,-0.00776078,0.00110223,-0.00123373,-0.00276485,0.00585496
0.00175834,-0.0109656,0.00538793,-0.000562161,-0.00178945,0.00654149
-0.000341294,-0.00776437,-0.00105745,0.000375479,-0.00174499,0.00619864
-0.00152328,-0.00776566,0.00856601,-0.000947565,-0.00377095,0.00688529
0.0018366,-0.00137618,-0.0031774,-0.000470102,-0.00204793,0.0055449
-0.00684257,-0.00562876,-5.97583e-05,-0.00188258,-0.00152406,0.00703692
-0.00363992,0.00181961,0.0031817,-0.00108346,-0.00279403,0.00649869
-0.0014443,0.00288051,-1.01514e-05,0.000450969,-0.00111109,0.0057981
-0.000429355,-0.00989236,0.00751331,-0.00152615,-0.00342017,0.0044679
0.00288195,0.00181193,3.8744e-05,-0.00363365,-0.0023523,0.00554729
-0.0078965,0.000759019,-0.00329095,-0.00372875,-0.00325602,0.00632823
0.00177152,0.00820083,0.00216363,-0.0032829,-0.00255203,0.00471902
0.00285088,-0.000319337,0.00325069,-0.00114638,0.00169569,0.00779855
-0.00366616,-0.00457198,0.00639479,-0.00123608,-0.000933647,0.00802946
-0.00246596,0.0103345,-0.00645301,0.0036656,-0.00610086,0.00855303
0.000702985,-0.00457165,0.00216455,0.00137722,-0.00378412,0.00591499
0.0104335,-0.00351622,0.0022714,-0.00407758,-0.00195909,0.004884
-0.000328155,0.00181482,-0.00321017,-0.00471875,0.00270525,0.00684363
-0.00355023,0.000760965,-0.00537727,-0.00274026,-0.00274706,0.00586814
0.0039062,0.00287426,0.00540288,-0.000434697,-0.00403753,0.00544327
0.000714526,-0.00563277,0.00109893,0.000927925,-0.00336239,0.00749087
-0.00254124,-0.00350724,0.00212361,-0.00387678,-0.000855565,0.00563228
-0.00137176,0.00820655,-0.00750727,-0.00137404,-0.00173435,0.00559962
-0.00682815,0.00288504,-0.00221259,-0.00198561,-0.000565886,0.00543016
-0.000342181,0.00500641,-0.00214473,-0.000439227,-0.000750512,0.00575268
-0.00141728,0.0103286,-0.00323446,-0.00133541,-0.00159827,0.00547218
0.00621637,0.022041,-0.0106456,0.00383508,-0.00275078,0.00707489
-0.00356944,0.00927427,-0.00431794,-0.000646651,-0.00271556,0.00847501
0.00508247,-0.00350751,-0.00313851,0.0024834,-0.00106782,0.00684375
-0.0089302,-0.013078,-0.00650191,-0.000123441,-0.00137362,0.00540292
-0.00889998,0.0124711,-0.0118796,-0.00171235,-0.000607491,0.00543785
-0.00785006,-0.00242686,-0.00756192,-0.000638098,0.00107786,0.00648272
0.00277187,-0.0247921,0.0129261,0.000167847,-0.0037615,0.00585723
0.0146761,-0.010971,0.0108949,-0.000615269,-0.00158247,0.00453728
0.00613392,-0.00670496,8.55792e-05,0.00185359,0.00246057,0.00599772
-0.000432764,-0.00563818,0.00750436,-0.000160038,-0.00268513,0.00674021
0.006089,0.00288211,0.00329753,0.00203505,-0.00214034,0.00647366
0.0050031,-0.00244491,0.00435456,-0.000538379,-0.000714093,0.00708866
0.000673158,0.00181922,0.0043052,-0.00319618,-0.00105488,0.00520658
-0.00139949,0.00288127,-0.00429291,-0.00335708,-0.000632077,0.0061267
-0.00469396,-0.00349923,0.00103633,-0.00265974,-0.00411275,0.00466728
0.0029133,0.00288211,-0.00316784,0.000131726,-0.0011037,0.00402182
-0.0132809,0.0358871,-0.00874617,-0.00366184,0.000145972,0.00556028
-0.0153161,-0.0269015,-0.0151165,0.00151899,0.00496387,0.00898689
-0.00148152,-0.0279863,0.00644975,-0.000205398,-0.00317991,0.00557637
0.0222783,-0.00138823,0.00669771,-0.00570714,0.0018816,0.00517488
-0.00253375,-0.00137129,0.00105948,-0.00514913,-0.00150678,0.00493068
-0.000385644,0.00182025,0.00215138,-0.000556678,-0.00307438,0.00537395
0.00722965,0.000747874,-0.00204846,-0.00129458,-0.000436038,0.00686514
0.000689669,-0.00350284,0.00323993,-0.00131994,-0.000925988,0.00707871
-0.00469766,-0.000303686,0.00103587,0.000743359,-0.00345653,0.00562429
-0.00571985,-0.00243479,-0.00433268,-0.000355542,-0.00393692,0.00596917
0.00394583,0.00713688,0.00112095,-0.000506818,-0.00185096,0.00550038
0.00500878,-0.00776877,0.00435793,-0.0019623,-0.000142008,0.00510585
-0.00256691,-0.012021,0.00534742,-0.00122565,-0.0029048,0.00502902
-0.000277804,0.0167269,-0.00963847,-0.000693977,-0.0051873,0.00645572
-0.00144856,0.00713837,-1.44131e-05,-0.00395411,-8.52048e-05,0.00754458
-0.0110639,-0.0545841,-0.00540568,-0.00202498,-0.00440583,0.00445807
0.00184324,0.00288318,-0.00425069,-0.00593233,-0.00231284,0.00461572
-0.00140485,0.0177911,-0.00536943,-0.000312895,-0.00564602,0.00539804
0.007151,0.0231019,0.00328407,-0.000655115,0.0015325,0.00599313
0.00183533,0.0220435,-0.00534084,0.00314638,0.0017226,0.0109965
0.00397583,0.0103326,-0.00209207,-0.00482732,-0.000920236,0.00723535
-0.00362281,0.00608231,0.00104173,-0.00368291,0.0018836,0.00662291
-0.00138021,-0.0066922,-0.00534571,0.000787318,-0.00276926,0.0051167
-0.00365728,-0.0141491,0.00640828,-0.00169736,-0.00289246,0.00478005
0.00287808,-0.00669884,0.0011245,-0.00155699,-0.00334746,0.00643539
0.000700358,-0.00350042,0.00217208,-0.00122705,0.000183016,0.00757796
0.000699647,-0.00243749,0.00216906,-0.0014804,-0.00105944,0.00527686
0.00176651,0.0018147,0.00324178,-0.000293404,0.000227153,0.00586081
0.00822148,0.000744638,0.00652812,-0.00322199,0.00103265,0.00545132
-0.000424277,-0.00350653,0.00643477,-0.00344673,0.000114828,0.00506121
-0.00358854,0.00608003,-0.00401501,-0.00120154,-0.00228927,0.00603747
0.00286348,-0.00350478,0.000352008,-0.00308827,-0.00254542,0.00737911
-0.000370339,-0.00137688,-0.000762151,-0.00173828,-0.00107214,0.00358188
-0.0025297,-0.00456837,-0.000783066,-0.0014593,-0.00123414,0.00802028
0.000745809,-0.00244257,-0.00396217,-0.000318289,-0.00185433,0.0080229
0.00612412,0.00181629,-0.00175697,-0.0036746,-2.55108e-05,0.00595689
0.00499763,0.00287803,0.00250896,-0.00105941,-0.00131729,0.00501001
0.00395882,-0.00457777,-0.000715422,-0.00103131,-0.00336602,0.00615942
0.00177507,0.00394604,0.00033074,-0.00389999,-0.000406891,0.00467336
-0.0100499,0.00288951,-0.00622962,0.000506729,-0.00158876,0.00699389
-0.000392,-0.00244034,0.00138205,0.00116664,-0.00276554,0.00647247
-0.000347472,-0.00243835,-0.00289914,-2.84016e-05,-0.00298831,0.00543994
-0.0046924,-0.00350599,-0.000813319,-0.00221816,-0.00136727,0.00778532
0.00186025,-0.00138118,-0.00716666,-0.000213653,-0.00135338,0.00685596
0.00393219,-0.000320444,0.0014215,-0.00145292,-0.00127319,0.00545299
0.00723529,0.00713125,-0.00497119,0.000624686,-0.00143757,0.00454533
0.00290237,-0.0067066,-0.00286829,-0.00120962,-0.00412983,0.00563073
0.00498727,0.0135215,0.00249674,-0.00315681,-0.00264117,0.00463426
-0.00569851,0.0103371,-0.00940141,0.000310451,-0.00379619,0.00534576
-0.00682893,0.00394828,-0.00405627,-0.000925153,-0.00440603,0.00546688
-0.00141934,0.0103375,-0.00506419,-0.000862479,-0.00412244,0.00701249
0.00398088,0.00607137,-0.00393316,-0.000285745,-0.00130883,0.00735176
-0.00247896,0.000754675,-0.00614213,0.000478119,-0.00406352,0.00492358
0.0018387,0.00926198,-0.00610829,-0.00167102,-0.00115925,0.00385058
-0.00140247,0.00607374,-0.00613833,0.00104254,-0.0023292,0.0070588
0.00180049,0.00181365,-0.00181339,-0.00089696,-0.00323221,0.00459141
-0.000402262,-0.0024446,0.00244756,-0.0016624,-0.00240621,0.00506157
-0.00139211,-0.00456968,-0.00612611,0.00100222,-0.00172892,0.0070172
0.00176839,-0.00990053,0.00247561,0.00123832,-0.00253701,0.00581527
0.00607561,-0.0141637,0.00466811,2.99513e-05,-0.00210851,0.00568759
-0.00575706,-0.00882756,-0.00189122,0.00173813,-0.00627136,0.0045234
-0.00359479,-0.00882824,-0.00186555,-0.00227034,-0.00469291,0.00649196
-0.00364344,-0.00457298,0.0024106,-0.000977039,-0.00139618,0.00746018
0.0114796,0.0199034,0.00149287,-0.00188911,-0.0119883,0.000198603
0.0103289,-0.0109692,0.0111449,0.00333476,-0.00254512,0.0111818
-0.0123073,-0.0247895,0.00554812,-0.00541621,-0.00338882,0.00486124
-0.0293902,0.0156779,-0.0193135,-0.00748515,-0.000242621,0.00601482
0.00196003,0.0103321,-0.0178823,0.00013566,-0.00169736,0.00639606
0.0135443,-0.0258813,0.0154711,0.000759244,-0.00135955,0.0069508
0.00923547,-0.0216115,0.0132872,0.0013838,-0.00664964,0.00547767
-0.0186414,0.000766762,-0.0116804,-0.0007478,-0.00418529,0.00387633
-0.00994092,0.0284386,-0.0191038,0.00515285,-0.00317642,0.00729847
0.0191033,0.0103159,-0.00269767,0.00386572,-0.00330573,0.00857067
0.0242367,0.0145637,0.0230539,0.000535071,-0.00213221,0.00531858
0.0136669,0.018832,-0.000630165,0.00288925,-0.00266081,0.00817931
-0.0110733,0.000763934,-0.0115911,0.00130323,-0.00530601,0.00483739
-0.0174913,0.0209948,-0.0202508,0.00378522,-0.00721273,0.00488615
-0.000221274,0.00713827,-0.0157644,0.00225931,-0.00157803,0.00812799
-0.0016009,-0.0194775,0.0153006,-0.00294146,-0.00200611,0.00442785
-0.00148585,-0.0226683,0.00459791,-0.00113884,-0.00690138,0.00443649
0.00839356,0.00713784,-0.012446,-0.000177532,-0.00332445,0.0040676
0.00939998,0.00394055,-0.00493802,0.00150895,0.00176728,0.00661415
0.00491678,-0.0152277,0.012153,0.00213382,-0.0025771,0.00732332
-0.00585184,-0.0152146,0.00775322,-0.00137369,-0.00599372,0.00440156
0.00294988,0.0113974,-0.00930174,0.000971124,-0.00360644,0.00515807
0.000733629,-0.00137868,-0.00289303,0.000371218,-0.00189525,0.0055927
-0.107743,-0.0630452,0.0355587,-0.00205879,-0.0127543,0.00223893
-0.189,-0.0225379,0.0463767,-0.0116341,-0.016698,0.00335169
-0.065915,0.0870078,0.0540851,0.00610539,0.00736475,0.000786424
0.0259397,0.127387,0.056153,-0.00852355,2.38717e-05,0.00618255
0.0718867,0.117788,0.00636209,0.0215724,-0.00561613,0.0237384
0.0245346,0.0188282,-0.0058571,-0.00201675,-0.000798941,-0.00269395
0.00688251,0.0124484,0.0282157,0.00747377,-0.0128872,0.00811189
-0.0016668,0.00181011,0.0195609,0.00317502,-0.00688502,0.00385547
-0.0124591,0.0145952,0.0162173,-0.00494641,-0.00874731,0.00143504
0.0307429,0.0518162,0.0177368,0.0120989,-0.0122306,0.00456327
0.0250503,0.0912033,0.0411938,-0.0049305,-0.000128567,0.00993967
0.0368185,0.0837345,0.0541761,-0.0111555,-0.000797689,0.00235707
-0.00856123,0.0614192,0.0526192,0.0230823,0.00881928,0.0211111
0.00636011,-0.00988996,-0.0231602,-0.0208228,0.00430304,-0.00126338
0.0210411,-0.0194662,-0.0818742,0.00553441,-0.0189087,0.00670254
-0.00126364,-0.0215966,-0.0168126,0.0263616,-0.00585055,-0.000415564
0.0341325,0.0166941,0.00710902,0.011983,-0.0108647,0.0132138
0.0440725,0.0198875,-0.0131224,-0.00835195,0.00286618,0.000954628
0.0493511,0.00284519,0.000869266,-0.00278878,-0.00244507,0.00310713
-0.0434084,-0.0343379,-0.018347,0.00120708,-0.0172502,0.000123441
0.0600244,0.178505,-0.106251,0.00900769,-0.00704318,0.000619888
0.15645,0.257231,-0.234801,0.00330406,0.00943169,-0.0441846
-0.431884,-0.15323,-0.188594,-0.022308,0.0404444,-0.0907968
0.0249998,-0.156796,-0.0335093,-0.130661,-0.106095,0.0414528
0.450903,0.00252986,0.0696592,-0.0135955,-0.0819344,-0.00386381
0.479982,0.0546887,-0.0275026,-0.0186106,0.0039109,-0.029804
0.319458,0.138899,0.0102238,0.0328008,0.036081,-0.0156801
-0.047256,0.0327125,0.0329367,0.0149024,0.0566711,-0.00766891
-0.0448328,0.0295227,0.00833961,0.026742,0.0460156,0.0138402
0.0344718,0.0358605,-0.0271722,0.0534175,0.065589,0.0224372
-0.125521,0.0487562,-0.0332769,0.117988,0.0699854,-0.0604848
-0.0873899,0.206247,0.0280223,0.0979327,0.0054962,-0.0741299
0.0614225,0.268936,0.0617721,0.127288,0.0926453,-0.127441
0.156935,0.107072,0.0437422,0.0272436,0.0131944,-0.0775802
0.315211,0.0132631,0.118437,0.00228998,0.0106137,0.0292161
0.0125201,-0.325012,0.14212,0.0156547,-0.00368726,0.0751441
0.0627822,-0.397401,-0.00393458,-0.0794513,-0.100292,0.235783
-0.393442,-0.353392,-0.122643,-0.108256,-0.0918158,0.234302
-0.219439,-0.178975,-0.0266249,-0.0461949,-0.0199671,0.0495511
