rotation_x,rotation_y,rotation_z,acceleration_x,acceleration_y,acceleration_z
-0.0317384,-0.0539006,0.027435,0.00796849,0.00235957,-0.00948465
-0.0254704,-0.0614183,0.0072071,-0.00437616,0.00837994,-0.00883168
0.0235195,-0.0208764,-0.000352341,-0.00255896,0.00452,-0.012243
-0.0243478,-0.0240216,0.0133805,0.0156338,0.00711602,-0.00406587
-0.0900428,-0.0804701,0.0797429,0.0107533,-0.00125444,-0.0126216
-0.3379,-0.269962,0.34288,0.0509077,0.0136276,0.032481
-1.60025,-0.646836,1.13553,0.167135,0.0623689,0.236658
-1.34523,-0.23466,1.15838,-0.0649254,0.14836,0.16495
-0.824814,0.362558,0.824169,0.0479405,0.182865,-0.155859
-2.19955,-0.609454,0.873407,0.0492401,0.166812,0.00123459
-2.07598,-0.109715,0.822547,-0.10655,-0.0365434,0.0245815
-0.741454,0.594154,0.132763,-0.0912823,-0.0224,-0.0046612
0.0230997,0.598464,-0.126173,-0.231794,-0.0595739,-0.00228775
-0.554257,0.567525,0.257577,0.0148298,0.047049,-0.197394
0.118037,-0.0459163,-0.228483,-0.0329289,0.0367164,-0.00571084
-2.08647,-0.106944,-0.0408159,-0.00944871,-0.156876,0.172261
-1.59213,0.254731,-0.0819103,-0.0266314,0.0311376,0.00764561
-0.519674,0.243402,0.0119284,0.032559,0.0551987,-0.0327168
-0.255562,0.0402363,0.00782345,-0.014495,0.00407922,-0.0176466
0.324684,-0.836128,0.0103378,0.0401119,-0.012926,-0.0537885
1.14398,-2.95954,1.07853,0.140213,-0.243131,-0.231448
0.770507,-1.94385,1.43061,0.139491,-0.0678324,-0.0271484
-1.92423,-0.248542,0.91056,0.0100027,-0.100669,0.395055
-2.79917,0.10893,0.317321,-0.0382205,0.182863,0.238423
-0.188048,0.321504,0.225285,-0.068204,-0.0607504,0.0613146
0.415327,0.101875,0.116782,-0.0164608,-0.0440632,-0.0626479
0.194507,0.630333,-0.152447,0.0416,-0.152995,-0.159636
0.261592,0.650252,-0.339304,0.00248656,0.118573,0.0840647
-0.132564,0.922745,-1.06268,-0.141658,0.107419,0.131232
0.0535327,1.296,-1.33579,-0.0640501,0.105316,0.122652
-0.47295,0.163351,-0.541902,0.164547,-0.284888,-0.099086
-1.12876,-0.923837,0.537554,0.107691,-0.225192,0.0127859
-1.00859,0.527646,1.07991,-0.0427203,0.131895,0.0725167
-2.5619,1.11902,0.170627,-0.12996,0.194608,0.228154
0.768612,1.07766,-0.0484901,0.0514109,0.0342468,-0.181176
0.712045,0.364224,-0.000268432,0.134166,-0.0110958,-0.18369
0.252885,-0.108548,0.0544998,-0.0157088,-0.0605805,0.00223994
0.211826,-0.00615131,-0.0499585,0.0114374,0.0714055,0.0621217
0.132907,-0.00504512,-0.0620128,-0.00193238,-0.0201003,0.00781292
-0.0512624,-0.0144701,-0.0337935,0.00455642,-0.0119826,-0.00369918
0.0384345,-0.0134133,-0.00141059,0.00152677,-6.65784e-05,0.00249845
-0.00300085,-0.0154832,0.0187483,0.00201395,0.00194353,-0.00374818
-0.021069,-0.0133207,0.0261468,-0.000246122,-0.00432026,0.00500655
-0.0317984,-0.00799359,0.0132497,-0.00421204,0.00731182,0.0084309
-0.00518633,-0.0219052,0.0102331,0.00194685,-0.00610447,-0.00657135
-0.00196413,-0.00908389,0.0133679,0.0100658,-0.00253183,0.00665462
-0.00093476,-0.00482341,0.00693409,-0.00104097,0.000671089,0.000511646
0.00759201,0.000511921,0.00692981,-0.000756234,0.00441867,0.003268
0.00857872,-0.029417,-0.00355683,0.000308305,-5.03063e-05,-0.0014708
0.00538257,0.0101034,-0.00703134,-0.000386328,0.0105451,0.00512582
-0.00637814,-0.00592041,-0.0123129,-0.00140586,-0.00189006,0.00338292
-0.00530298,-0.0123269,-0.0101299,0.0104506,-0.00282776,-0.00122339
0.0490755,-0.0294468,-0.00233371,0.000616476,-0.00932288,-0.015548
-0.0232882,0.0154938,0.00885347,0.00114109,0.0111411,0.00754488
-0.0456712,0.00162352,0.00886064,0.00137621,-0.00419474,0.00531387
-0.10854,-0.00260207,0.00865255,-0.00255279,-0.00255108,0.00146294
-0.29948,0.0369973,-0.0307839,-0.00722584,-0.0174463,0.0257535
-0.547141,-0.0996605,-0.0959991,0.0332701,0.0136146,0.0180913
-0.0917144,-0.257941,-0.00565631,0.0382732,0.014722,-0.105024
0.704941,-0.804411,-0.0140892,-0.0235094,0.0617138,0.00871789
2.39371,-0.265279,-0.0721612,-0.0387787,-0.0323046,-0.00510353
0.202153,0.17433,-0.0800131,-0.0856258,0.0701655,-0.00701433
1.28039,0.34256,0.073585,0.0109424,0.0640517,0.0920281
1.62971,0.212569,0.413365,0.0044547,0.0318867,-0.0709974
-0.538622,0.14705,-0.118938,0.028764,-0.0553324,0.0298837
-0.485294,0.179511,-0.4694,0.00866894,0.0592229,0.0751737
0.0767147,-0.0356271,-1.08133,-0.0754723,0.328193,0.158678
0.713793,0.299984,-1.30549,-0.0427783,0.141554,0.183252
0.298728,0.664195,-0.901258,0.133343,-0.103422,-0.0682477
-0.0572988,0.1373,0.0122111,0.0683153,-0.189824,-0.300527
0.654335,0.0470112,-0.000567239,0.0924166,0.0866581,-0.0846428
-0.654885,-0.180919,0.424456,-0.00834924,-0.0767235,0.0487158
-0.200734,0.193244,0.788075,-0.121665,0.0427189,0.178909
-0.195824,0.227119,0.00255977,0.0545562,0.0694335,0.130274
-0.190111,-0.0347553,-0.087604,-0.0273295,-0.036467,-0.029698
-0.418524,-0.0532989,0.204415,0.00253394,-0.0443621,-0.00797725
-0.031573,-0.174229,0.244043,0.0435882,0.00675446,-0.0795006
-1.50017,-0.288117,-0.156042,-0.0109891,0.0957893,0.136033
-4.1801,-0.437803,-0.172587,0.00714125,0.016743,0.0406057
-1.66664,-0.538431,0.18045,0.0646303,0.101459,0.0351264
-1.09851,-0.0243156,-0.00880428,-0.02411,-0.000359535,0.0781183
0.765915,0.0596554,-0.0515155,-0.0511128,0.0637937,0.0174358
1.40059,0.0419797,-0.110994,0.0370708,0.137594,0.0622957
0.744793,0.321397,-0.0436777,-0.0325466,-0.0432835,-0.0275923
0.316,0.36858,-0.124653,0.00205326,-0.00562871,-0.00395787
0.110792,0.220716,0.139444,0.0220929,-0.0268721,0.00632828
1.38393,0.0445542,0.131462,0.00837415,0.109516,0.000593066
-0.218749,0.0881297,-0.0767563,-0.0353021,0.0285445,0.0622162
-0.150647,0.0837804,-0.0914329,0.0195107,0.0102963,0.00241709
0.428648,0.123382,0.204304,0.00863829,0.0394133,0.01051
-0.427798,0.023077,-0.105967,-0.0398741,-0.052776,0.0111673
-0.937607,0.0983912,-0.0175451,0.0231461,-0.0154436,0.0362018
-2.15189,-0.261749,-0.630909,-0.119107,0.229045,0.10221
-2.16249,0.128242,-1.19121,-0.133154,0.0596454,-0.0154994
-2.46454,0.114615,-0.562933,0.173504,-0.204809,-0.142722
0.323673,-0.38798,0.33544,0.241454,-0.0304703,-0.153134
1.05842,-0.679308,0.819813,0.123872,0.0631974,-0.105888
0.20453,-0.413598,0.904642,-0.03926,-0.336614,-0.0313419
-0.21576,-0.145967,0.444039,-0.0391007,-0.109467,-0.0128862
-0.05559,-0.0333982,0.135126,-0.0947155,0.0673678,0.0160406
0.353267,0.193831,-0.469559,-0.113981,0.197574,0.0630164
0.49099,0.460193,-0.804125,0.00335494,-0.00809187,0.0400046
0.0392729,0.243295,-0.418701,0.105871,-0.140932,-0.00996685
-0.115861,-0.115457,0.219841,0.120703,-0.172313,-0.0247855
-0.330064,-0.337902,0.590163,0.0642399,-0.0239429,0.00812221
-0.283479,-0.177061,0.347825,-0.0816316,0.110288,0.0298834
0.135627,0.133348,-0.33215,-0.13068,0.172488,0.0205064
0.310854,0.303932,-0.444788,0.0335625,-0.0515153,0.00229919
0.075527,-0.0188388,-0.0343611,0.107684,-0.158788,-0.0385479
-0.304932,-0.219809,0.327721,0.0601586,-0.0463569,0.0171655
-0.294463,-0.0335867,-0.0762528,-0.149308,0.177814,-0.0409914
-1.11985,0.164425,-0.207771,-0.015252,0.0477062,-0.07877
0.153552,-0.480531,-0.130441,0.045328,-0.328952,0.0985945
-1.61853,-0.815975,-0.30158,0.114889,-0.129953,-0.135523
0.235765,0.190051,0.371964,0.0240829,-0.13135,0.257584
0.189022,0.474093,0.90417,-0.048938,-0.140122,0.00223017
-0.47119,-0.136387,0.313737,-0.0289941,0.251654,-0.373352
-0.346997,0.0702698,0.0382686,0.0130014,0.0429446,0.0510962
0.54137,0.0353427,-0.00305286,0.00323147,-0.0473065,0.0273043
0.217288,0.0205856,-0.0298123,0.0201262,0.00365555,0.00744534
0.0585621,-0.0177335,-0.0205421,-0.00658661,-0.022564,0.0030967
-0.0500601,0.00372609,-0.012539,-0.0030358,0.00459123,-0.00437832
0.036723,-0.0688265,0.0737319,0.0496715,-0.0570232,-0.0396127
-0.119812,-0.0259587,0.0856887,0.00960657,0.00566626,0.0178145
0.125199,0.159679,0.0597583,-0.0055175,0.0105564,0.0842185
0.318586,0.292125,0.136551,-0.0695514,-0.00133246,-0.0804459
-0.0318369,-0.0937574,-0.163561,-0.120976,0.11655,-0.0810689
0.283916,-0.249068,-0.267146,-0.0736101,0.0489328,-0.0458599
0.394384,-0.295934,-0.14249,0.0854894,-0.0402308,0.0699526
0.168518,-0.19109,-0.148289,0.124156,-0.076508,0.0673579
-0.099825,-0.0915113,-0.129637,0.056215,-0.0338244,0.0258336
-0.0759823,-0.0946157,-0.0622165,0.00910586,-0.0148146,0.00830579
-0.0192202,-0.1939,-0.00473442,-0.00565261,-0.0295489,0.0618434
0.389526,0.0577276,-0.0956524,-0.0531028,0.0644841,0.092917
0.141445,0.912087,-0.320083,0.0691391,0.00216979,-0.0208706
0.0239764,0.667829,-0.164013,0.0446315,0.025772,-0.0886407
-0.177549,0.0410016,-0.131857,0.0560071,0.0267876,-0.147163
2.7102,-0.771135,0.335107,-0.16753,-9.47714e-05,-0.204882
2.74013,-0.523789,0.685135,-0.155642,0.0480449,0.158514
2.91469,-0.011317,0.607673,-0.134466,-0.00820863,0.0718161
2.71333,0.554903,0.56158,-0.0838279,-0.107269,0.0628558
3.09354,0.311316,-0.515617,-0.00581861,0.447305,-0.250226
3.66156,0.568135,-1.23422,0.00932981,-0.245859,0.140022
2.16497,0.60282,-0.983623,0.0302004,-0.0781333,0.126479
0.848866,0.343333,-0.281692,0.00700501,0.0170033,0.0991152
0.35373,0.192453,-0.0357578,-0.00874564,0.0329304,0.024556
0.183213,0.077223,-0.0313743,-0.0138113,0.0519338,0.00337183
0.0107664,-0.00590608,0.00377976,-0.0165394,0.047981,0.034829
0.00218619,-0.0155282,-0.00473784,-0.00696178,0.00893071,-0.00235474
0.0104786,0.00682712,-0.0454538,-0.00338355,0.0131735,-0.000321567
-0.00831936,0.0154961,0.0174601,0.00344715,0.00514285,0.0112539
-0.162444,0.00397399,0.0810639,-0.00352171,-0.0227046,0.0265792
-0.562668,-0.0764639,0.334378,0.0273619,-0.0180404,0.0323039
-0.393569,-0.25122,0.653474,-0.00789411,0.168445,0.0576388
-0.531687,-0.13703,0.531481,0.0104969,0.0686241,-0.0391028
-0.796056,-0.268235,0.522795,0.0238589,-0.0651131,-0.0244738
-0.0324763,-0.00329667,0.255756,-0.0359335,0.00501159,-0.0332235
0.307002,0.135615,-0.183007,-0.0135289,0.00200878,-0.0597118
0.222274,0.039704,-0.0886767,-0.00853851,-0.00808809,0.00448906
-0.0306144,-0.065635,0.0382044,0.00991244,-0.000816964,0.0212053
-0.850357,-0.247135,0.349369,0.0409021,-0.0888384,0.0489755
-7.18264,-1.22858,0.798935,0.121862,-0.336191,0.256134
-6.71906,-1.80827,-0.025757,-0.0435979,0.225243,0.0035606
-1.39846,-0.572599,0.30562,-0.0885536,0.102593,-0.0656415
-0.0408221,-0.0102699,-0.0701064,-0.109358,0.144736,0.14854
0.149691,0.268593,0.0473971,0.0242131,0.0083344,0.0539386
0.81442,0.238142,0.0255098,0.00280249,0.00840014,0.0156298
0.361301,0.135871,-0.0118497,0.0023724,-0.0257624,0.00275135
-0.0572199,0.0251759,0.035383,-0.000338331,-0.0174989,-0.00297225
0.136712,-0.00273598,0.0394933,0.00524268,-0.00284719,0.0119566
0.264741,-0.00491995,0.0677668,0.00376952,-0.0100784,0.010778
0.198507,-0.0401662,0.042106,0.0110748,-0.00846207,-0.004403
0.00337308,-0.06783,0.0201852,-0.013566,0.00158769,-0.011152
0.0864988,0.0378481,0.0133996,-0.015624,-0.000627875,0.0120261
0.394682,0.106042,0.0493724,0.00871322,0.00267541,0.0164921
1.4344,0.16714,0.00799332,-0.0160663,0.0190222,0.0732883
6.12345,0.302811,-0.40164,-0.0524346,0.348588,0.195855
0.918256,0.605697,-1.70844,-0.035093,-0.0437977,0.126114
-3.68353,0.700491,-0.802071,0.0351719,-0.299124,0.0873851
-0.904272,0.155057,0.0281644,0.197708,0.092775,0.0131667
-0.974284,-0.461058,0.135538,-0.0405094,0.0869875,0.189406
0.151764,-0.489735,0.105748,-0.078084,0.0473857,-0.198026
0.891351,-0.173807,0.276353,0.0667548,-0.141825,0.163208
-0.334148,0.140007,0.220581,-0.0643116,-0.0292512,0.139128
-0.800419,0.188233,0.108471,-0.0650009,-0.0583569,0.0264534
-0.265276,0.363062,0.136053,0.0192922,0.0134962,0.111885
1.01259,0.114095,0.0345381,0.0183583,0.131177,0.0270602
0.251449,0.109221,-0.0270444,-0.0195238,-0.0160136,-0.0501587
-0.339515,0.103374,0.0391628,0.00167096,-0.0449148,-0.092832
-0.816975,-0.0511628,0.0341022,0.0399491,0.0437108,0.0659012
0.0825895,0.0016395,0.0755925,-0.0197685,-0.00882578,-0.00161248
-0.188407,-0.0663031,0.200027,-0.0136432,-0.00750589,0.0392859
-0.070556,0.187677,0.106936,0.0202329,0.0340191,-0.0196575
-0.207504,0.222551,-0.168395,0.00453219,0.000886321,0.0112268
-1.59383,-0.00285361,-0.164646,0.0261201,-0.0820192,-0.13366
-0.288877,-0.132848,-0.0242923,-0.0546298,0.0802615,0.0509153
1.0539,0.225065,-0.0173103,0.0462312,-0.00119656,0.0810856
0.0213174,0.0143447,-0.015537,-0.01811,-0.0606483,-0.0773016
-0.0520616,-0.0197353,0.0111195,-0.00132269,0.0131398,0.0401476
-0.134713,-0.0334229,0.0888945,-0.00548035,-0.026163,-0.00851637
-0.271691,-0.062331,-0.00758857,-0.00978939,0.0322126,0.00400651
0.0692642,0.0100357,-0.015329,0.00950804,-0.0230067,-0.0101719
-0.112993,-0.00372699,-0.0234018,0.00356455,-0.0252273,-0.0080148
-0.0831878,-0.0753162,-0.0217581,-0.00468697,2.59876e-05,0.0160204
0.154626,0.0324363,0.0030076,0.00259256,0.00610268,0.0318809
-0.0598712,0.0581343,-0.054589,0.00847426,-0.0169001,-0.0103461
-0.168646,0.0421684,-0.0687822,-0.00305781,0.0222176,0.00618511
-0.0342799,0.0698692,-0.0524329,-0.00250615,-0.00669831,-0.00491577
0.364606,-0.00615011,0.0190025,0.00859687,-0.0227084,0.0154743
0.569331,0.0108275,0.0420947,0.00152691,0.000527382,0.0260359
0.528064,0.0515273,0.0865534,-0.0063381,-0.00411099,0.019522
-0.260781,0.0124981,0.0282941,-0.000872955,-0.0311126,-0.0145501
-0.19477,0.0113656,0.0200008,-0.000624686,0.0180737,0.0130769
0.158746,0.0281197,-0.0204557,0.00501972,-0.00851357,0.015077
0.576565,0.0342525,0.00243875,-0.0012697,0.0140945,0.0158511
0.429851,-0.034964,0.0632406,0.000128269,-0.00108796,0.0931845
2.43569,-0.742917,-0.137279,0.095919,0.20612,-0.0671711
2.44252,-0.644665,0.462576,0.0632326,0.128114,0.0964475
0.141859,-0.205098,0.383799,0.00236495,0.0167159,0.103525
0.181794,0.208796,0.0756902,0.00864187,0.091364,0.0439264
-1.21657,0.311197,-0.00286633,-0.00357616,-0.147142,0.0121801
-1.46489,-0.045046,0.197245,0.0145411,-0.0752063,-0.0891957
-0.610519,-0.090909,-0.00440162,0.0162275,0.0824167,0.0456768
0.393791,0.0481077,-0.0944954,0.00516966,0.0230557,0.00886172
0.0471815,0.00907012,0.0337431,-0.0237841,-0.0505777,0.00983232
0.280412,-0.00181897,0.015452,0.0408583,0.00498164,-0.00426507
0.283664,-0.061304,0.208171,-0.0398916,-0.0271289,0.0332286
-0.12699,-0.0792773,0.137302,0.0209283,0.01025,-0.0185148
0.0633509,-0.0400175,0.0693812,0.0159788,0.000246048,0.00396812
0.256469,-0.0625148,0.115123,-0.00419287,0.0143201,0.00635982
0.406749,0.0164178,0.115176,-0.000686646,-0.00766385,0.00209558
0.166198,0.0252197,0.156954,0.0121288,0.00247127,0.0244695
0.0509457,0.0839971,0.12195,0.0112002,-0.0363651,-0.0217921
-0.387372,-0.0944601,-0.106115,0.0330943,0.0775762,-0.0149911
-0.415361,-0.852387,-0.442136,0.317869,0.0143226,-0.389001
3.1367,-1.90839,0.130398,0.123916,-0.104147,-0.493184
3.10857,-1.15499,2.12982,-0.0528639,-0.176113,8.90493e-05
2.15937,0.0328082,1.69332,0.110019,0.327033,0.296347
0.253989,0.679226,0.346432,0.151623,0.46228,0.261733
0.464815,0.321676,-0.00197852,0.00135227,-0.000642836,-0.0515852
-1.68333,-0.0787495,0.377216,-0.0369682,0.0163453,-0.0539094
-0.993939,-0.158927,0.0287965,-0.0213335,0.0632509,0.043544
-0.587424,0.130321,-1.15112,0.263096,0.271716,0.122377
-0.139731,0.19652,-2.19589,0.13174,0.158596,0.0805198
-2.77143,0.717608,-2.22515,-0.0191196,-0.0655431,0.0391111
-2.7663,1.2731,-1.59621,0.0596479,-0.107322,-0.0893809
-2.46927,0.444499,-0.671925,0.039462,-0.110417,-0.170947
-0.404133,-0.00861038,0.112301,0.106961,-0.157467,-0.300369
0.1444,-0.209876,0.0964287,0.145515,-0.0141312,0.0371493
2.76397,0.157713,0.690431,-0.00361578,0.332966,-0.132241
-0.639655,0.0307597,-0.0768813,0.013721,0.135592,0.0349961
0.810435,0.322287,-0.113943,0.00423251,0.0822009,0.146316
0.650365,0.302978,0.381344,-0.00324269,-0.0970505,0.0417506
-0.0206283,0.202547,0.0803165,0.0101474,-0.0299126,0.0375933
0.317759,-0.317974,0.0529066,0.0789968,0.0141938,-0.180797
-0.139334,0.0294881,0.023298,0.0500373,-0.0501555,0.122149
-0.0492921,0.298723,0.0892019,-0.0486862,-0.0121644,0.0877733
-0.229973,0.00603865,0.0134953,0.0274248,-0.0228278,-0.0180556
-0.00482733,0.0679087,0.0620183,0.0308252,-0.0775896,-0.0262437
-0.00744335,0.027495,0.162705,-0.00428978,-0.0180383,0.0256315
0.0463208,0.034762,0.06563,0.0149933,0.029071,-0.0069567
0.217714,0.000409611,0.0429897,0.00358087,-0.0185725,0.0090698
0.0672224,-0.00382295,0.000783668,-0.000674024,0.00707233,-0.00163871
0.121529,-0.0102821,-0.00431355,0.0104294,-0.00447416,0.00472903
0.0213837,-0.00699828,-0.00257376,0.00598538,-0.00137687,2.45571e-05
0.136604,-0.0273355,0.0236323,0.00377958,0.004466,-0.00157446
0.247647,-0.173673,0.0752133,0.0292643,-0.00383872,-0.0860093
-1.56494,-0.755364,-0.433178,0.0207926,-0.0741127,-0.108696
-3.05831,-1.08443,-0.503948,-0.0297709,-0.0423604,0.0816802
0.564848,-0.204669,0.20268,-0.0184954,0.109257,-0.0621493
-1.39381,0.0410068,-0.0402361,0.104494,0.236232,0.056221
0.50333,-0.39572,0.266728,0.0372144,0.0354135,-0.409006
2.58696,-1.577,0.645462,-0.0501424,-0.0361723,-0.26368
1.66741,-1.44583,1.34314,-0.0770527,-0.148023,0.089112
0.608258,-0.640809,1.2645,0.0925749,0.115456,0.180802
0.325277,-0.252634,0.769441,0.052918,0.0789405,0.199189
0.128679,-0.0599524,0.304817,0.0326678,-0.00963902,0.100955
-1.00161,-0.0932128,0.343539,0.0408273,-0.0470592,0.0263907
0.276887,0.320943,0.109514,0.0429202,0.0772684,-0.0388573
0.299663,-0.48092,-0.28587,-0.113659,0.228513,-0.230396
0.256866,-0.465676,-0.138683,-0.452802,-0.32942,0.0125642
0.456526,0.0170916,1.13359,0.205694,0.108989,0.106043
1.11396,0.317475,0.9311,0.156208,-0.195857,0.216551
0.276768,0.74541,0.942287,0.216356,-0.124966,0.0472112
-0.50023,0.0779116,0.0707852,0.102959,-0.0131352,0.0823842
-0.25064,0.270892,-1.86236,0.282056,0.215475,0.0505089
-0.912961,0.220829,-2.6776,0.236689,-0.0076009,0.107741
-2.5143,1.15572,-2.02936,0.0324414,-0.181194,0.0772822
-3.5733,1.80018,-0.464746,-0.0122323,-0.124112,0.192663
-2.69841,1.02295,0.157928,-0.0331289,0.127397,-0.235048
-0.771428,0.458042,0.477588,-0.014958,0.192083,-0.188941
2.34673,-0.602465,0.120043,0.0919833,0.229486,0.0749135
3.0869,0.278757,-0.19809,-0.0127556,0.343892,-0.156606
2.94708,-0.167025,0.157932,-0.00653854,0.226615,-0.0966259
2.962,0.676718,0.0841372,-0.0770822,0.0892904,0.210939
1.01498,0.276509,0.0634138,-0.0713259,-0.0303599,0.0189623
-0.330632,0.299678,-0.0966974,0.0355978,-0.0521345,0.020098
-0.0889471,0.083698,-0.108283,0.0230135,0.0157539,0.0256108
-0.010638,0.0731118,-0.0192389,0.00391789,-0.0124368,-0.0055449
0.0387283,0.0614301,0.0408532,-0.00451702,-0.00128037,-0.0230362
-0.0242794,0.0347363,0.0194189,0.00832036,0.00289971,0.00975674
0.101435,0.0228867,0.0178326,-0.00544354,0.0109682,0.00161099
0.0386832,0.0218984,0.0368378,0.0117632,-0.00304484,-9.32217e-05
-0.0285987,0.00908814,0.0120934,-0.00424102,0.0038473,0.00112587
-0.0104784,0.00907709,0.0132283,0.00429821,0.00182271,0.00246847
0.0117763,0.00902445,-0.00698761,-8.04216e-05,-0.00616461,0.000398278
0.0778164,0.0143083,-0.0110481,0.00313951,0.0112393,-0.000266552
-0.0541986,-0.00692123,0.00889606,0.00313416,-0.0167487,0.00492024
0.0170423,0.000457902,-0.0165279,0.00675051,-0.00771338,0.00429308
0.0288051,-0.00487854,-0.00897069,-6.89328e-05,-0.00905728,0.0077334
0.0128447,-0.0112689,-0.0047139,0.00317873,-0.000673115,0.00548363
0.0715217,-0.00595077,0.00722302,-0.00600228,0.00998074,-0.0150481
0.0618424,0.0324799,-0.0112264,0.00457719,0.013152,-0.00174022
0.0319787,0.000453108,-0.0132683,0.00036329,0.000879943,-0.00249279
0.0895105,-0.0134769,-0.0129618,0.00562307,-0.00203818,0.00421906
0.0449074,-0.00912783,0.0114176,0.00590014,0.00340444,0.00658238
0.025681,-0.000582994,0.00274298,0.0050257,0.0129802,0.00739604
0.0118007,-0.00592019,-0.00154998,0.00524555,-0.00542176,-0.00632715
0.0626175,-0.0626604,-0.0512089,0.0159491,0.00190675,-0.00152016
-0.0148818,0.020788,-0.0114395,-0.0164509,0.00397068,0.0210798
0.00335588,0.0378987,0.00775088,0.00789297,-0.0100508,0.00743711
0.0514168,0.0186695,0.0283585,0.00805365,0.00428569,-0.00296617
-0.010463,0.0144216,0.015331,-0.00152935,-0.017615,-0.0111437
0.0108651,-0.00160929,0.0197874,0.00484353,-0.0185744,-0.00106382
0.0235567,-0.0251435,0.00609791,0.00571524,-0.00620401,-0.00529623
0.0042882,0.00154598,-0.0112426,-0.00624214,0.0105295,-0.000352561
-0.0116462,0.0218644,-0.00502242,-0.00809625,0.00073427,-0.00336421
-0.0127645,0.00582959,-0.0124024,0.0155453,0.00237268,0.00339031
0.169213,-0.0808845,-0.0421445,0.0150606,0.00934637,-0.0114951
-0.247474,-0.328065,0.145946,-0.00838564,-0.138412,-0.0376568
-0.494217,0.0439324,0.188553,-0.0281344,-0.00882524,0.158137
-0.261635,0.208768,-0.13218,-0.045563,0.162376,0.0125329
-0.849278,0.0830237,-0.212631,0.0135211,-0.00731641,-0.0881193
-1.11339,-0.242178,0.017137,0.0235023,-0.0299281,-0.059417
-0.285703,0.167261,-0.0550738,-0.000923738,0.0582901,0.0401257
0.133586,0.0624356,0.0454735,-0.0426371,-0.0240529,0.0492744
0.112292,0.0699327,0.0474821,0.0324878,-0.00430232,-0.0286708
-0.100544,0.0221097,0.0961435,0.00609936,0.0150675,-0.0151783
-0.692384,0.0405723,0.0136749,-0.00326768,-0.00129294,0.00407988
-0.638167,0.0447676,-0.0075195,-0.0137459,0.0436209,0.0175813
-0.175473,-0.032717,-0.134564,-0.0116874,0.0125455,-0.0120254
-0.000392723,0.033469,-0.0841233,-0.00430574,0.000757098,0.0210569
-0.291031,-0.153146,-0.0263046,0.030335,-0.0226126,-0.079468
-0.213211,-0.157466,-0.0195749,0.00900936,0.000166357,0.0214842
0.612024,-0.0639473,0.060905,-0.0223223,-0.0506141,0.0911855
0.802992,0.259595,0.0723432,-0.00604358,0.0493374,0.041045
1.391,0.291904,-0.134012,0.00530469,0.0809956,-0.0194213
0.601464,0.0671465,-0.113075,0.0174359,-0.112268,-0.0472328
0.410748,0.0676046,0.0667776,0.0115527,-0.00443637,-0.00446701
-0.204499,0.102115,-0.0116081,-0.011289,0.0283443,0.0113915
-0.025114,-0.0114329,-0.115978,0.0115402,0.00907165,-0.0458895
0.0590995,0.0109445,-0.111536,-0.00472282,0.0304015,0.0404758
0.065036,0.00150546,-0.0088807,-0.000795528,-0.0198371,0.0320152
0.264015,0.0229481,0.122076,0.00514516,-0.00291538,0.0145886
0.556753,-0.0328922,0.0807962,-0.0032343,0.0238293,-0.0306298
0.182725,-0.0465032,0.0762772,0.00307596,-0.0195961,0.0216937
0.0354558,-0.000534169,0.0337601,-0.0196028,0.00206202,0.0387617
0.151587,-0.0615023,0.0377947,0.016229,-0.00201219,-0.0456658
0.551927,0.00326017,-0.0166856,-0.00734563,0.026738,0.0156927
-0.00451443,-0.00493509,-0.0571808,-0.00934175,-0.018204,0.00583571
-0.147078,0.00912063,-0.0225482,0.00883646,-0.00919461,-0.00299388
-0.0920877,0.00468452,-0.0917614,-0.000196114,0.0230113,-0.00426418
-0.128012,0.0368415,-0.0440244,0.00432549,-0.00893319,0.00749278
-0.126973,0.0357648,-0.0482869,-0.00215203,0.010134,-0.00769842
-0.0256679,0.0282356,-0.0339686,0.0027325,0.00136113,-0.00957692
0.0149992,0.0239844,-0.00387156,0.00675564,0.0045287,-0.00223142
0.0405666,0.000466736,-0.0025547,0.000949934,0.00165582,0.00376737
0.00653149,0.00905428,0.00687898,0.000278041,0.00298691,0.00736117
0.0459881,-0.0165988,0.0146719,0.0101323,-0.00263417,0.00486374
0.0332297,-0.0112394,0.0188602,-0.00157374,-0.00695693,0.0145832
0.0374547,-0.0091186,0.0124543,0.00511663,0.00224078,0.0027554
0.00652329,-0.00696752,0.00698046,0.00455564,0.00782698,0.00281274
0.0321844,-0.00909699,0.0220486,0.00516734,-0.00260037,0.00227547
0.0288897,-0.0133945,0.00603573,-0.00136055,-0.00469011,0.00344574
-0.00206432,0.00690479,-0.00489438,1.95354e-05,0.00362813,0.00500548
-0.000966768,-0.0059035,0.00160423,0.000573769,-0.00676286,0.00227535
0.0107706,0.00156857,0.0037371,0.00426732,-0.0014987,0.00182861
-0.000952145,-0.00162544,0.00371012,0.00116608,0.0023756,-0.00110453
-0.00519276,0.00265501,0.0068742,-0.00249247,-0.00179577,0.00357139
0.00436984,-0.00056413,0.0026569,0.00318976,0.000892639,0.00143522
0.00219827,-0.00484636,-0.00373444,-0.00305986,-0.00221938,0.00505805
0.0555568,-0.0198149,0.0115207,0.00808011,0.006576,-0.006271
0.0765916,-0.0348643,-0.033177,0.0100715,0.00246286,0.0146767
0.080923,-0.0241669,-0.0225457,-0.00754635,-0.0021655,-0.00199437
0.213335,-0.0904009,0.0318022,0.0192003,0.0177188,-0.00827754
1.41778,-0.266346,0.118655,0.00468257,0.10293,-0.0931249
2.35513,-0.520135,-0.443536,0.0170658,0.128896,-0.177702
0.954309,-0.0710275,-0.786118,-0.0387614,0.0847444,-0.00489753
-1.88127,0.219276,-0.322089,0.0888593,-0.0926149,-0.000556469
-0.945775,-0.377091,-0.0935505,0.0750251,-0.0541428,-0.25254
0.0119573,-1.27408,0.494948,-0.0161319,-0.00276065,-0.301922
0.971823,-1.27543,1.35972,-0.0366482,-0.147819,-0.045928
0.326789,-0.434779,2.28568,0.00561452,-0.133534,0.106907
-1.23403,-0.291193,2.47657,0.297979,0.0566394,0.200623
-1.099,-0.830293,2.1205,0.148202,-0.0731786,0.255773
-0.243667,-0.373634,0.964682,0.105776,0.13327,0.112576
0.309357,0.124862,0.389764,0.0102769,0.0999866,0.0041573
0.398484,0.15032,0.324754,0.0100008,0.0352046,0.00902069
0.782296,0.0835657,0.190933,0.0199654,0.00746065,-0.0127571
0.640827,0.143554,0.226341,0.0227117,-0.0196099,0.00710261
-0.0184832,-0.161959,-0.0626277,0.0287448,0.169553,-0.114609
0.815717,-0.211302,-0.429936,0.124839,0.0446881,-0.169767
0.334819,-0.832953,-0.611477,0.163171,-0.17962,-0.0441607
-0.378749,-0.566198,0.130965,0.0494997,-0.128749,0.115335
-0.806598,-0.217241,0.358954,0.0175743,-0.0739166,0.107698
-1.62491,-0.194506,0.178381,-0.038092,0.0407537,0.0744284
-0.25958,-0.176503,0.0679823,-0.05905,0.0602062,-0.0266296
0.0013986,-0.0830453,-0.130378,-0.0423356,0.160734,0.0144605
0.164085,0.0772496,-0.0228927,-0.053176,0.0446104,0.0188552
0.301678,-0.492878,-1.01661,0.172689,0.369042,0.0138236
2.02332,-1.41084,-2.92956,0.205136,0.312206,0.256285
-2.06229,1.07512,-3.94288,-0.1022,0.183463,0.51157
-0.979846,3.14413,-4.1467,0.193168,0.300545,0.147325
-0.139053,2.52927,-3.5391,0.376849,0.0869352,-0.224964
0.645315,0.916654,-1.7649,0.428987,-0.519702,-0.398122
-0.557652,0.361292,-1.004,0.328131,0.302466,-0.268279
-0.546714,0.128845,-0.757778,0.0716685,-0.233922,0.0748293
-1.30451,-0.0781589,-0.954799,0.0513692,0.143064,-0.0566497
-0.257363,-0.295343,-0.0850961,0.0727029,-0.0934732,0.128825
0.464673,0.00812421,0.893271,0.144375,0.116344,-0.0662006
0.312094,0.204875,1.55279,0.222286,-0.331953,0.0188082
-0.93695,0.352998,2.02902,-0.00538944,-0.248671,-0.375568
1.14791,0.112836,1.81508,-0.319985,0.182576,0.155477
3.03251,0.947426,0.981201,-0.401906,0.197384,-0.0740757
1.9819,0.990001,0.439563,0.139149,-0.0433624,0.0699669
-2.83261,-0.734293,0.680596,0.262392,-0.108488,0.282788
1.06579,0.240554,0.901491,-0.195826,0.553812,-0.0581377
2.98997,0.306479,0.338787,0.171778,-0.0308788,-0.260083
1.77211,-0.609105,0.958797,0.124671,-0.225697,-0.113515
1.50035,0.60362,1.01936,-0.113422,0.407066,0.067815
0.87243,1.13708,0.379964,-0.107978,0.125948,0.233818
0.031742,1.07119,0.207359,-0.0271567,0.0857294,-0.138227
0.0106874,0.203717,0.149868,-0.0391467,0.0125813,-0.0348418
-0.886136,-0.428097,0.0843627,0.034485,0.0230892,-0.0704367
-3.15387,-3.70389,-1.28012,0.20541,0.702976,0.0160321
-2.73686,-2.19495,-1.35031,-0.165929,-0.184305,0.0799459
-1.55568,0.179204,-1.10699,-0.181653,0.0622969,0.264727
-0.657826,1.54034,-0.578233,-0.00651571,-0.236958,0.071741
1.39914,1.86198,0.374029,0.0354188,-0.229763,-0.170699
-1.10206,0.170278,0.0935637,0.0840288,0.0840299,-0.0927257
-1.01032,0.149191,0.291707,0.156602,0.117169,-0.180039
-0.617005,-0.126931,0.161413,0.150695,0.133533,0.16856
-0.0753909,-0.216201,0.0475589,0.0800144,-0.096575,0.0921657
0.133994,0.010224,0.118461,-0.133037,-0.0552449,-0.287748
-0.871002,0.220566,0.240481,-0.120907,-0.193178,0.0242894
-0.364228,-0.0368888,-0.160895,-0.00341824,-0.0164424,0.050753
0.222321,0.0775439,-0.440441,0.0379223,0.0516025,0.0814755
0.0670838,-0.0458231,-0.196618,0.0609545,-0.0926045,0.0790656
0.562716,0.128566,0.172722,0.0870606,0.10931,-0.149702
-0.026934,-0.334953,-0.0348273,-0.0682157,-0.0938212,0.0342104
-0.164082,-0.321188,-0.163645,-0.0232007,0.0389609,0.0427529
-0.27843,-0.0950874,-0.418762,0.0337649,-0.117775,0.0752995
-0.256169,0.0528741,-0.0948283,0.0233832,0.028761,-0.0119609
-0.28473,-0.0164659,-0.0538852,-0.0115844,0.00205857,0.00381398
-0.0828364,0.0312809,-0.150667,-0.024108,0.0322801,-0.00813949
0.0295455,-0.00176566,-0.0634879,-0.00481021,0.0183409,0.0133544
0.0784751,0.0206022,-0.0794775,0.00959575,-0.0119531,0.015358
-0.0224624,0.0207606,-0.0317733,-0.000868052,-0.0217341,-0.00292552
-0.102171,-0.00154688,0.00439737,0.00131981,-0.0151876,0.0130353
0.0253771,0.00680945,-0.0486014,-0.0212842,0.0442165,-0.014765
0.0372152,-0.0273429,-0.0258971,0.0308272,0.00309157,0.0119712
0.0359865,0.0302853,-0.0583308,0.0180891,-0.00154889,-0.0141303
-0.410521,0.0554812,0.107582,-0.0103851,-0.0411468,0.00273371
-0.201087,-0.0665714,0.0397085,0.00930203,-0.00139707,0.0236436
0.0319943,-0.00487752,-0.0100385,-0.00231764,0.0243862,-0.000252306
0.159742,0.00460325,-0.0299186,-0.00541665,-0.00584579,0.021948
-0.4687,-0.0287251,0.185905,-0.0140797,-0.140348,0.0347164
-0.168303,0.0262509,-0.00991918,0.0709737,0.0530768,-0.0128803
0.393123,0.116582,-0.0340468,0.0548225,0.0549426,-0.0382021
0.0774166,-0.0295933,-0.0738128,-0.0478343,-0.000303566,0.0340483
0.151885,0.00128956,-0.0961722,0.0241763,-0.00336194,0.00173831
0.287515,-0.0104705,-0.0432345,-0.00329822,-0.00947285,-0.00506604
1.20988,-0.395146,0.286454,0.0885678,0.0430076,-0.348742
0.5393,-1.73754,1.41345,0.382038,-0.444011,-0.12959
0.773149,-1.7859,2.5707,0.298276,-0.133344,-0.119963
0.860266,-1.71524,2.69985,0.160124,0.0836877,0.0677997
0.0517199,-1.15643,3.0351,-0.175774,-0.132346,0.272601
-0.248307,0.262412,2.44782,-0.0918321,0.342976,0.190716
-2.14388,0.363563,0.829914,0.189987,0.141444,0.300408
-0.0154542,0.296358,0.580819,0.0577214,0.0398602,0.12191
-0.254862,0.00839812,0.127701,0.0870132,0.0827228,-0.0312706
0.262282,0.0430505,0.00867614,0.0038107,-0.0221133,-0.126352
0.816477,-0.141033,0.0472044,0.0894608,0.0102174,-0.020973
1.01212,-0.912917,-0.843485,0.164683,0.0540592,-0.188994
0.0370454,-1.27232,-1.54571,0.0815049,0.178752,-0.0299758
-0.94485,-0.568532,-2.05932,0.0714662,-0.0216073,0.163194
-0.986707,0.849944,-1.52484,0.0199618,-0.0729671,0.273372
-0.83135,2.28539,-0.975832,0.0108463,0.0362706,0.309016
-0.631138,2.38987,-1.00247,0.13746,0.0996495,-0.0253178
-1.84552,0.79385,-0.988124,0.087837,-0.000675023,-0.307964
-2.86024,0.115106,-0.452228,0.0655613,0.0741901,0.0466
-1.01706,0.195018,0.228346,0.203559,0.165568,-0.279734
1.19833,0.251077,0.257646,0.0397292,0.126319,-0.0746611
1.2755,-0.0460763,0.180795,-0.0247151,0.0876487,-0.0027346
0.965941,0.0682751,0.0773919,-0.0505812,0.0187534,-0.0317397
0.892564,0.143891,-0.0836401,0.0198382,0.16798,0.0305735
0.0612722,0.0796248,0.067519,-0.0191524,0.00709099,0.0508674
-0.0520583,0.21555,0.168784,-0.0277836,-0.0691791,0.02097
-0.522413,0.12285,0.0992437,-0.00876297,0.0301505,-0.0437069
-0.0633395,0.0626461,0.0778463,0.0101314,0.0233014,-0.0390635
0.107992,-0.0560989,0.0525471,0.0289657,-0.003447,-0.0171808
0.124928,-0.166153,0.0437095,-0.0064545,-0.00954181,0.0091033
0.105557,-0.0508467,0.00122016,0.00144891,-0.022864,0.012764
0.24426,0.0612477,0.0223804,0.00343531,0.0365965,-0.00127399
-0.091571,0.0422192,-0.00866905,0.00424619,-0.0125086,0.00571656
-0.1436,0.0487194,0.0210111,0.00909619,0.00274765,-0.00789106
0.0558452,0.0208567,0.0561288,0.000712797,0.0129451,0.0165507
0.365587,-0.1148,0.192791,0.00766952,0.000596881,-0.0279902
-0.208371,0.0787394,0.055832,-0.0163731,-0.000260174,0.0513994
-0.217385,0.0593788,-0.0242104,0.0137697,0.0225561,-0.043542
-0.200709,-0.158935,-0.244969,0.0154696,0.0299907,0.00402015
-0.342962,0.140689,-0.00597424,-0.0353522,0.00370717,0.016394
-0.0108421,-0.103168,-0.0373414,0.0500932,-0.0636899,-0.0637208
-0.21236,0.00268058,-0.0697677,8.9705e-06,0.053377,0.0181111
-0.240368,0.0306932,0.0549544,0.0104924,-0.072444,-0.0276897
-0.184962,0.0658963,0.0517286,-0.00861824,0.0707175,-0.0324113
0.0065335,0.0528481,0.00338229,0.0211349,0.0135254,-0.0121112
0.0887471,0.0688564,0.0302969,-0.00547142,0.033388,-0.0301266
0.948368,-0.0995461,0.00468893,0.0230479,0.0212831,-0.0410799
-0.305534,-0.116697,0.0396407,0.0586686,0.0989599,-0.0868846
-1.06255,-0.0450232,-0.228636,-0.0582465,-0.0265414,0.0517091
0.256032,-0.023432,-0.139432,0.012222,-0.0273026,0.129943
0.459733,-0.125307,-0.276905,-0.00521743,0.0671139,-0.0502303
0.623233,-0.0650354,-0.558755,-0.0309213,0.0248591,0.0145292
-0.374176,-0.182861,-0.563862,-0.135742,0.069833,-0.0263162
-0.821424,0.202049,-0.554143,-0.0547757,-0.172534,0.165494
1.31571,0.132354,0.831542,0.282104,-0.328286,0.225803
0.583781,0.0579885,0.137997,0.0738713,0.0521572,0.0534133
-0.0451522,0.119258,0.0850298,-0.0471084,0.0461885,-0.0857854
-0.390033,0.529748,0.105649,-0.0985531,-0.0932741,0.0429931
-0.3897,0.368259,-0.00228475,0.0863873,-0.0765086,0.0385998
-0.0500073,0.0582112,-0.00861778,0.0104716,0.0104265,0.0217102
-0.0895971,-0.0293863,-0.0284991,-0.0229499,-0.0535157,-0.0362287
-0.706015,0.154621,-0.137777,-0.0288098,0.0116625,0.000285566
0.209352,0.0888066,-0.11576,0.033119,0.0576499,0.0464321
0.0499457,-0.138442,-0.0251344,0.0205122,-0.00108957,0.00596255
0.250327,-0.0531314,-0.0217316,-0.00802857,0.0298091,0.00770229
-0.126076,-0.0700169,-0.0668379,-0.018019,-0.00644952,0.0122595
-0.107897,-0.0817608,-0.0549392,0.00409928,0.00772232,0.0320616
0.191874,-0.149169,0.0117972,-0.0377467,-0.0135318,-0.00500238
0.0541475,-0.0580495,0.135698,-0.0111411,-0.021641,-0.0127762
-0.0769925,-0.0800911,0.302026,-0.065855,0.0309539,0.00534976
-0.458047,-0.272557,0.0293933,0.0597842,-0.0780463,0.0106087
-0.410377,-0.713018,-0.155619,0.0375517,-0.0293528,0.0158505
0.329368,0.0355124,0.00256399,-0.151305,0.152012,-0.0919278
0.0868968,0.0462005,-0.0988475,-0.00950745,0.0158568,0.00570947
-0.025576,0.0474918,-0.0202127,0.0116871,0.00921643,0.000762224
-0.0112421,0.158385,-0.12772,0.0330087,-0.0650125,0.0158523
-0.127907,0.0699853,-0.0292885,-0.0207773,0.0233046,-0.0198854
-0.0722922,0.103869,-0.175676,-0.0212226,0.0388275,-0.0365046
0.235741,0.034556,0.0257245,-0.0166757,0.11918,0.0272558
0.165193,-0.0145862,-0.00734247,0.0212636,0.0186148,0.00803328
0.304983,-0.0274481,0.0285241,-0.0140488,0.00318307,0.0108111
0.398655,0.0269244,0.00822106,-0.00477749,0.0371723,-0.0307329
0.202532,-0.00071633,-0.000882196,0.00737859,0.0427762,0.0112165
0.0368676,0.0323678,-0.089328,0.00788233,0.0153591,0.000852466
-0.160987,-0.0154479,-0.0299256,-0.026391,-0.0466203,-0.0013901
-0.00014376,0.0346144,-0.0424699,-0.0152648,0.0203852,0.00491071
0.0229719,0.0601351,-0.0991775,0.0067832,0.0152372,-0.0211644
0.0989575,0.0227938,-0.0398855,0.00735411,0.0154361,0.00875121
0.163998,0.00673755,-0.0309913,0.00518343,0.0186389,0.00317138
0.299227,-0.00086773,-0.0453932,0.0169479,0.00195861,0.00781906
0.151456,0.00895401,0.0095492,0.00241044,0.0224314,0.0159238
0.157652,-0.0135376,-0.0212653,-0.00169998,0.00174716,-0.00124705
0.0609286,-0.00698625,0.0178616,-0.0260879,-0.0102729,-0.00147015
-0.0947582,-0.0026319,-0.00305087,0.0123534,0.000938177,-0.0015192
0.131913,0.0761492,-0.0572039,0.00602336,-0.0121225,-0.00101399
-0.0415657,-0.030466,-0.0144228,0.0130742,-0.00193751,-0.00404233
-0.105562,-0.01762,-0.0264992,-0.0170983,-0.0500521,-0.0167595
-0.0320357,-0.047579,-0.0228243,0.0268833,-0.0168447,-0.000762761
-0.185219,0.0124201,0.013609,4.21256e-05,0.00827217,-0.00841838
0.292795,-0.00194161,-0.0518225,0.00253451,-0.00160277,0.00797969
0.192788,-0.0167755,-0.0253875,-0.000614822,0.0306764,0.00025773
-0.165257,0.0069818,-0.0332925,-0.00835633,0.0241309,-0.0166366
-1.11351,-0.0627758,-0.0182278,-0.00252607,-0.122592,-0.0181324
-1.16941,-0.139777,-0.0937969,0.00298065,0.00308287,0.00709498
-1.40278,-0.593836,-0.235969,0.0501303,0.0633253,-0.231698
-1.36202,-1.8927,-0.786194,0.141034,-0.0878893,-0.132925
-0.913011,-1.42801,-0.578109,0.071363,-0.0635682,0.162601
0.0870996,-0.200457,-0.0427579,-0.0893655,-0.116628,0.318163
0.536986,0.997479,0.424483,-0.00823742,-0.064982,0.206543
1.72433,1.38714,0.806771,0.0302964,0.00328553,-0.0295497
1.22561,0.765597,0.675376,0.05877,0.116602,-0.145823
0.472303,0.228765,0.0114624,0.00166535,0.166002,-0.105523
0.84706,0.261504,-0.0418396,0.0169987,0.0406687,0.0963956
0.627052,0.393957,-0.139683,0.00137961,-0.00735348,0.0529252
-0.00703208,0.0251743,0.0537253,0.0450166,-0.0806651,0.0135136
1.39369,-0.145827,-0.0018915,-0.00148538,0.0805594,0.017955
0.292319,0.0299601,-0.1343,0.0299295,-0.0439196,0.0685708
-0.110438,-0.202255,0.0654968,0.0778657,0.00154594,-0.0540879
0.216159,-0.0523704,-0.212048,-0.0621897,0.0222698,-0.00372308
-0.208612,-0.378449,0.0566544,0.0127195,-0.0124352,-0.0820417
0.248842,0.152123,0.0677477,-0.0208508,0.0231444,0.159247
-0.00398292,0.41848,0.171919,-0.067069,0.0106716,0.0835221
-0.375074,0.0392088,-0.0214688,-0.0455661,-0.0288208,0.0207726
-0.126389,0.0452402,-0.129557,-0.000623882,-0.0101293,-0.0419348
-0.78511,-0.00452856,-0.164823,0.0217867,-0.0826068,0.0188138
0.182229,0.0622959,-0.0163245,-0.0122925,0.0243265,-0.0357307
0.189857,0.131762,0.00569115,-0.0200815,0.0422626,-0.0271516
-0.0421175,0.0519248,0.0641037,0.0403585,-0.030265,-0.0324359
-0.355402,0.0759616,0.235866,0.0307661,-0.0579775,-0.00495398
0.0294958,0.152332,0.0925695,-0.0517686,-0.0298878,0.0125973
0.139577,0.346418,-0.0471763,0.0742175,-0.167254,0.0165883
0.191651,0.264099,-0.0624725,-0.0284443,-0.0300705,-0.0338353
-0.0404199,0.0154831,-0.00510205,0.0410053,-0.0658008,0.0854099
0.409913,0.184094,0.0948562,0.0653915,0.0875568,0.0821204
0.896129,0.0460503,0.164884,0.101177,-0.23187,-0.640976
-0.569048,0.162164,-0.0411531,-0.0255159,-0.0611184,-0.0044902
-1.72903,-0.14445,0.0451703,-0.0353558,-0.106674,-0.0270439
-0.571276,-0.482646,0.178844,-0.0487645,-0.0774333,-0.0445587
0.531563,0.0964768,0.133274,0.0577401,-0.00711429,0.108198
-0.236684,0.226286,0.118872,-0.164279,-0.214598,-0.117564
0.267071,0.156104,-0.0914087,0.0435169,-0.094885,0.0108352
-0.247158,0.143795,-0.021666,0.0986302,-0.0141001,-0.00978965
-0.518185,-0.173321,-0.0580209,0.0445452,0.0348078,0.0121804
-0.207937,-0.225836,-0.0223271,-0.00862586,0.0146915,0.000744522
-0.181019,-0.100812,0.0132881,-0.000669986,0.0150538,-0.0460876
0.143948,-0.03698,0.00554466,-0.013615,0.0284474,0.00484282
0.10753,-0.0209876,-0.0278176,-0.0143945,0.0124068,0.0745254
-0.398479,-0.180779,0.00444449,0.0194251,0.107299,-0.284086
-0.13319,-0.577852,-0.320001,0.0948956,0.0593581,-0.130563
0.590241,-0.610899,0.0312356,0.118902,0.134555,-0.0308195
0.513587,-0.110981,-0.00327733,-0.0868517,0.129418,0.111601
0.399092,0.0954067,0.0750899,-0.023396,-0.117266,0.0826038
0.432824,0.18499,0.00625393,-0.0808234,0.144047,-0.105577
-0.460898,-0.10477,0.0720985,0.0437182,-0.157576,-0.045018
-0.725921,-0.591512,0.164013,0.116493,0.0848841,-0.235568
-1.03354,-1.18653,0.626152,0.0275068,-0.156415,-0.260635
1.3433,-1.69008,0.798585,0.0402237,0.0180733,-0.111777
0.936172,-1.33108,1.28301,-0.0547945,-0.179715,0.123886
0.594641,-0.631866,1.48127,0.0213773,0.0313694,0.145775
-0.330868,-0.101163,0.968989,0.122307,0.189526,0.182999
-0.139061,0.298587,0.57927,0.0598711,0.138525,0.133707
-0.0303045,0.255493,0.417553,0.0941872,0.0808043,-0.00020647
-0.789391,-0.151297,0.201523,0.0708065,-0.0572565,-0.144223
0.381378,0.0645636,0.144673,0.0654115,-0.0532298,0.0605698
-0.892997,-0.0951319,0.510621,0.0767518,-0.24362,0.246411
-1.93341,0.358988,0.746317,0.00331002,-0.053159,0.0773045
-1.00276,0.138848,0.487323,-0.10926,0.16486,-0.0793689
-1.34002,-0.237634,0.0707375,-0.0660537,0.0381345,0.0233996
0.0125981,-0.0412373,-0.043002,-0.0125251,0.049208,-0.0932846
0.00293182,-0.0668863,-0.0535544,0.0436602,0.103716,0.0391511
0.44838,0.0420475,0.125838,-0.0275645,-0.0176675,-0.0286344
0.666768,0.00235443,0.122637,-0.0133863,0.100315,-0.00964493
0.416884,0.165034,0.193301,0.0127321,-0.0106935,0.047352
-0.0376382,0.0972883,-0.259915,-0.037372,0.0600197,-0.0595162
-0.53122,-0.0441502,-0.111263,0.0125915,-0.0425507,-0.0439713
0.089755,-0.196344,-0.133593,-0.0483824,0.104209,-0.118988
0.155085,-0.303723,-0.424339,-0.116998,0.133052,-0.0604457
-0.0455774,-0.389116,-0.474753,-0.103458,-0.00548637,-0.00527132
-0.659432,-0.245703,0.0263252,-0.0784406,-0.0780209,0.0597731
-0.317752,-0.175572,-0.0380265,0.131969,-0.201498,0.106453
-0.12284,-0.0590156,0.116875,-0.0446924,-0.061887,0.0255258
0.0933975,-0.0909263,0.287775,-0.00837272,-0.0690261,0.0688655
0.255804,0.0212265,0.352831,0.0549868,-0.0587559,0.0271924
0.117359,0.0829866,0.18096,0.0714798,0.0271944,-0.0120708
-0.0133076,0.120269,0.0648376,0.049211,-0.0105094,-0.0143198
0.140195,0.0603638,0.0818261,0.0379785,-0.00889397,-0.000459433
0.394628,-0.0146569,0.0512124,0.0384151,0.155509,-0.0711806
-0.0200365,0.0625027,0.0138998,0.0285502,0.0855752,0.0253282
-0.0905295,-0.00874106,0.170092,0.0413765,-0.0953981,0.00435233
0.646615,0.106307,0.30673,-0.000258029,0.0533326,0.0836811
0.850485,0.209101,0.535475,0.0089868,-0.122057,0.0535259
0.405621,0.159836,0.270221,-0.00978744,-0.0423482,0.0157413
-0.176101,-0.0279976,0.116474,-0.0219434,0.0668997,-0.0789011
0.0515163,-0.000206246,0.225059,0.0135508,0.00286704,-0.0068289
0.00284249,-0.00572201,0.104178,0.0019801,0.0297503,0.0327305
-0.716256,-0.0908986,-0.0464756,0.122547,-0.0305903,0.0139391
-2.57581,-0.0490213,-1.33799,0.383635,-0.214573,0.234284
0.41017,1.14643,-1.19566,0.157577,0.0876141,0.263263
1.6311,2.19886,-1.13594,-0.118001,0.111626,0.127976
-0.803124,3.28703,-1.15639,-0.180034,-0.127145,-0.0855495
-0.428149,2.60122,-0.39621,-0.0983789,-0.322725,-0.286984
-0.33341,0.407995,0.141904,0.092206,-0.0068599,-0.558731
-1.33378,-0.514928,-0.286441,0.230391,-0.00499761,-0.206621
-0.152846,0.0624034,-0.100923,0.257817,-0.0616168,0.0336122
0.438683,0.483881,-0.109987,0.0491324,0.149096,-0.054026
-0.272493,0.285178,0.18353,-0.0869581,-0.022146,0.0287599
0.572079,0.0195553,0.144609,0.0160094,0.083311,-0.1425
1.21142,0.161131,0.137538,-0.0131792,0.194624,0.238669
0.91818,0.31829,0.086271,0.0495285,0.0362081,-0.0970026
-0.00281066,0.0208883,0.0473557,0.0299208,-0.00820208,-0.036394
-0.0677889,0.0337594,0.0491654,-0.00424771,-0.00259227,0.0253983
-0.222444,-0.00355073,0.0263908,0.00626183,0.0673423,-0.0280477
0.0332192,0.00798692,0.0155208,0.0154922,0.0313904,-0.0166242
-0.221503,0.0145683,0.00384001,-0.00144093,-0.0096302,-0.00248188
0.0427152,0.0250414,-0.00165025,-0.00319147,0.00581169,-0.0230751
0.0492969,0.005867,0.0316204,0.00563864,2.72989e-05,-0.000159323
0.10989,0.0153924,0.00721104,0.00134456,-0.0123333,-0.00957274
0.0982298,-0.016622,0.0201959,0.000603706,0.00245607,0.000585854
0.00347598,0.0123083,0.0303395,-0.00811496,-0.00249094,0.00470519
0.0691041,0.024949,-0.043221,0.00566062,-0.0013715,-0.00576264
0.0446546,-0.000649218,-0.0313926,0.00202841,-0.00364441,-0.00414348
-0.0147883,-0.00694648,0.00688973,-0.00376867,-0.00673026,-0.00423187
0.0159896,0.0164916,-0.0155848,-0.00259535,0.00512892,-0.000313342
-0.0106177,0.0015676,-0.00917593,0.0140385,-0.00759673,0.00457972
-0.0190194,-0.00907075,0.0122308,-0.00880639,-0.00662243,-0.00470752
0.029865,0.0122154,-0.0112302,0.00270832,0.010533,0.00452989
0.00965814,-0.000573939,-0.0037454,0.0142198,-0.00656807,-0.000206232
-0.00945905,-0.0165622,0.00804019,-0.00753599,-0.00709617,0.000532687
-0.0126658,0.00159387,0.00470512,0.00812379,0.00391632,0.0100736
-0.018014,-0.00161319,0.00150244,0.0130266,-0.00914872,-0.00279379
-0.00732368,-0.0080185,0.00799326,-0.0111357,-0.0036456,-0.00407255
-0.0149459,0.0100961,-0.021001,0.0165833,0.00109535,0.0063588
-0.0542508,0.00695717,-0.000828648,0.00158939,-0.00829464,-0.00165808
-0.0328836,0.0176369,0.00773216,-0.00802834,-0.00914848,-0.00615269
-0.0318511,-0.0101421,0.00470995,0.01596,0.00314909,0.0232736
-0.0137683,0.00371868,-0.00172092,0.00260255,-8.45194e-05,-0.00150013
0.0203081,-0.0112638,-0.0036363,-0.0120625,-0.00124973,0.00516415
0.027769,0.00581938,-0.00478664,0.0162023,-0.00403047,0.0031926
0.0341836,0.0100925,-0.00158403,-0.00214742,0.00340039,0.00265902
0.0171095,-0.00271809,-0.00477138,-0.0015664,0.00442916,0.00444043
-0.0306816,-0.00690911,0.0217898,0.00138722,-0.00257576,0.00203997
0.0181782,0.0165066,-0.0059602,-0.0105012,-0.00434738,-0.00657791
0.0191713,-0.000604077,-0.0165297,0.0158375,-0.0121491,-0.00230372
-0.00623349,-0.0101491,0.0122868,-0.00351408,-0.00512868,0.00288045
0.0213589,0.0100911,-0.00804321,-0.00279412,-0.000785708,0.00320756
0.026686,-0.00379761,-0.00686457,0.0120568,-0.00382012,0.00082171
-0.00513712,0.000539795,0.0164948,-0.00632963,-0.00143844,-0.000330925
-0.00528691,0.00797308,-0.00919816,0.00184868,5.79953e-05,0.00462002
0.00324979,0.00690111,-0.00701998,0.00935602,-0.00861704,-0.00391948
-0.0382118,-0.00905988,0.0100215,-0.00776011,-0.013629,-0.00569719
-0.00627741,0.00479202,0.00363938,0.0108707,-0.000217974,0.00839227
0.00328628,0.0165256,-0.00174295,-0.00369842,-5.11408e-05,0.00165474
0.0117989,-0.00698177,-0.00155723,-0.00229546,-0.00538337,-0.00195003
0.00438495,-0.00696308,0.00589393,0.00324425,-0.00149745,0.0080207
0.0118138,0.0101114,-0.000599939,-0.00191736,-0.00295824,0.000384748
0.00326348,-0.00377439,-0.00374717,0.00223918,-0.00254202,-0.00139385
-0.0211784,-0.000531862,0.00682279,0.0029839,-0.00102597,0.00439966
0.00327834,0.000502422,-0.00163861,0.00283772,-0.000555396,0.00309283
0.00116648,0.000509434,0.00155916,0.0010554,-0.00150079,0.003079
0.00115263,-0.00163068,-0.00056391,0.0010612,-0.00147045,0.00218469
-0.00203818,-0.00269417,0.000498539,-0.00180943,-0.000506699,0.00208837
-0.00203599,0.00157829,0.000471508,0.00205825,-0.000703752,0.002635
-0.00416886,-0.00162358,0.000481913,0.000207335,-0.00167167,0.00356901
0.00223196,0.00159029,0.00156259,-0.000753492,-0.00527972,0.00133198
0.00327774,0.000683786,-0.00157581,0.00317858,0.000374198,0.00196147
0.00861981,0.00391461,0.000595463,0.00118391,0.0015853,0.00157726
0.00860602,0.00177418,-0.00152671,0.0020217,-0.000236094,0.00487226
-0.000958803,0.000721078,0.00273175,0.00186449,-0.00109822,0.00319612
0.00221806,-0.000354972,-0.000486509,-0.000189751,-7.33137e-05,0.00235742
0.00647596,0.00391252,-0.00160375,0.00171976,-0.000897706,0.00180662
0.0054173,0.00455329,-0.000568006,0.00165851,-0.000715435,0.00326067
0.00328469,0.00105222,-0.000588845,0.00150803,0.00327653,0.0016073
0.00435118,0.00298293,-0.00062985,0.000530481,0.00135553,0.00261223
0.00329046,-0.000355768,0.000438905,-0.00146233,0.000537694,0.00202036
-0.0052279,-0.0014375,0.00148775,-0.000438988,-0.00134784,0.00119418
-0.028587,-0.00246375,0.0152925,-0.00202708,0.000243843,-0.00363088
-0.0200499,-0.00246681,0.0174622,0.000465736,0.00602072,0.00464755
0.00983455,-0.00567934,0.0261435,0.00127374,0.00387639,0.0052973
0.0162773,0.00394262,0.0335845,-0.00296916,-0.0034945,0.00349534
0.0362752,0.00812769,-0.00803761,0.00646129,0.000411808,-0.00343412
0.00409408,0.012361,-0.0445128,-0.00072214,-0.00157624,-0.00130528
-0.0192065,0.000671903,-0.0199511,0.00171334,-0.00631034,0.00179982
-0.0362123,0.00924089,-0.0136585,0.00387752,0.00305414,0.00122494
-0.029814,0.00710273,-0.0125547,-0.000654534,0.00233912,0.00202155
-0.03084,-0.00356599,-0.00500887,0.00102919,-0.00373012,0.00457788
0.00112749,-0.000385416,-0.00490971,-0.0071217,-0.00521564,0.00590956
0.0416794,-0.00466973,0.00595401,0.00444235,-0.00154704,0.00230837
0.0278402,-0.00465517,0.00803805,0.000760734,0.00176716,-0.000855684
0.0160917,-0.00892657,0.00374787,0.00429462,-0.0014627,0.00493044
0.00980255,-0.00568844,0.0208008,-0.00143051,0.0035904,0.00645369
0.00327139,-0.000383552,-0.00276423,0.00269993,-0.00283742,0.00164092
0.00112858,0.00175084,-0.00492327,0.00205688,-0.00145334,-0.00027281
-0.00843618,0.000697425,-0.000678745,0.00220776,-0.000680685,0.000193655
-0.0126935,-0.00250241,0.000395175,0.000355452,0.000875056,0.00110829
-0.00735948,-0.00250418,0.00148285,-0.00141241,-0.0013867,0.00412184
-0.00203183,-0.00250813,0.00150273,-0.000275746,-0.00234658,0.00216067
0.00328301,-0.00251572,-0.000614505,-0.000288412,-0.00411862,0.00264221
-0.0276403,0.00284118,-0.00503929,0.000784516,-0.000755131,0.00128382
-0.0073591,-0.00143519,0.00147421,-0.00011155,0.000803649,0.00317693
0.00438219,0.000696892,0.00471206,-0.00135261,-0.00120085,0.00199962
0.00221763,-0.00251572,-0.000616788,0.000518858,-0.00118649,0.00208497
0.0011606,0.00175985,0.000419695,0.00154483,-0.000120342,0.0033406
0.0118089,0.000682467,-0.00060332,-0.00224455,0.000126243,0.0019564
0.012876,0.00388638,-0.000620383,0.00337717,0.000323594,0.00361788
0.00862501,0.00068877,0.00152124,-0.000487879,-0.00305808,0.00191897
0.00757863,0.000695295,0.00472234,0.000334218,-0.00558203,0.00296581
0.00435608,-0.00037867,0.000444958,-0.0016727,0.000412941,0.00239468
-0.00310165,0.00176371,0.000402289,0.00120401,-0.00163364,0.00316793
0.00329093,0.0135076,-0.000719225,8.78274e-05,-0.00499111,0.014772
-0.0052466,-0.000374586,-0.00172925,0.00106974,-0.000280857,0.00357634
0.00541463,-0.00144926,-0.000613154,0.000229314,-0.00331682,0.00420207
0.0107487,-0.00145126,0.000474994,0.000273004,0.000835717,0.00198346
-0.0500532,0.0188676,-0.0127058,-0.00179221,-0.0021131,-0.00602162
-0.0671022,0.0049959,-0.0116116,0.00151177,-0.00263768,0.0151365
0.0064742,-0.000383152,-0.00168578,0.0010518,-0.00125003,0.00567245
0.0395482,-0.00466756,0.00594478,0.00258364,-0.00412822,0.00357646
0.0246189,-0.00359346,0.00374834,-0.00181819,-0.00211525,0.00342256
0.016094,-0.00465477,0.00372226,0.00281638,-0.0015595,0.00304741
0.0192904,-0.00465611,0.00373196,0.00170688,-0.00278455,0.00399357
0.0149976,-0.00252726,-0.00163712,-0.00139382,-0.000382125,0.00321263
0.00755537,0.00495968,0.000422796,0.00332099,-0.00226462,0.00249183
0.00121007,-0.00142951,0.00898748,0.000245035,-0.00313872,0.000739574
0.00241948,-0.00779695,0.0336084,-0.000591204,0.0084334,0.00501925
0.0108696,-0.00248399,0.0207826,-0.00102273,0.0014447,0.000710249
0.00664276,-0.0088797,0.0272209,-1.67191e-05,-0.00242668,0.00287247
0.0161115,0.0049631,0.00579601,-0.000519305,-0.00193089,0.00234693
0.0169905,0.0155887,-0.0263238,0.00282472,0.00144374,0.00263345
-0.0139679,0.0145265,-0.0360481,-0.00625217,-0.00584257,0.00149226
-0.0522904,-0.00145365,-0.0286108,-0.00149077,-0.00115269,-0.00463963
-0.0372961,-0.00144327,-0.0157317,-0.000692323,-0.00355512,0.00706148
-0.0223394,0.00069383,-0.00928036,0.00136058,-0.00362504,0.00415713
-0.0308442,0.00070466,-0.00610446,7.51317e-05,0.000309229,0.00350946
-0.0191213,0.00496856,-0.00608802,0.000663951,0.000640631,0.00464171
-0.0180807,0.0060281,-0.0103639,0.00206618,-0.00199544,-0.000263214
-0.0234057,-0.00144327,-0.00926727,-0.00183126,-0.00165248,0.00465691
0.0107796,-0.00357841,0.00583133,-0.00162145,-0.000860035,0.00416124
0.0833358,-0.00787582,0.0232263,-0.000158742,-0.00265026,0.000363529
0.235669,-0.00586478,0.0173728,0.00312461,0.0254115,0.00999343
0.115225,0.00382531,0.00938173,-0.00210883,-0.0121936,0.00656724
-0.0467677,0.00500682,0.00342273,0.00121345,-8.6844e-05,0.00347245
0.00967251,0.00281837,-0.00169314,0.000149354,-0.000508964,0.000414729
0.0139389,-0.00145592,-0.000580626,0.00119768,-2.21133e-05,0.00559175
-0.0041678,0.00069676,0.000404268,0.00034827,0.000217736,0.00521237
-0.00523103,0.00496945,0.000374479,0.000202313,-0.00278717,0.00300157
-0.00311394,0.0028284,-0.00174203,0.0047605,-0.00316775,0.00215346
0.00542163,-0.000379602,0.000449237,0.00185792,0.00576222,0.00161207
-0.0020261,-0.0035738,0.00257668,-0.000923812,0.00179386,0.00428027
0.00114663,-0.000379646,-0.00170471,0.000102356,0.00182003,0.00239098
0.00114768,0.00175683,-0.00171875,-0.00086692,0.000803113,0.0032261
0.00436761,-0.00251035,0.00259363,-0.00174384,-0.00107193,0.00337726
0.0256383,-0.0185585,-0.00254104,0.00140817,-0.00306678,0.00523192
-0.00949422,0.00283625,0.000475185,-0.000322804,-0.00116843,0.000662327
-0.0158561,0.0145994,0.00464718,0.000119716,-0.00351119,0.00558501
-0.00418903,-0.00358201,-0.00266972,0.00183268,-6.3777e-06,0.00272751
-0.00734561,-0.000364156,0.00370895,0.00175984,-0.00133288,0.00180477
-0.000964695,0.000695605,0.00158888,-0.00119619,0.000638485,0.000876844
-0.00737863,-0.00250991,-0.00161941,-0.000168666,0.00150412,0.0025835
0.00223023,-0.00251102,0.00162088,-0.00107235,0.00254101,0.0027315
-0.000969565,0.00389872,0.000498791,-0.000219226,-0.0010218,0.000619173
0.000113627,0.000698491,0.00372989,0.000584796,0.0040642,-0.00169051
0.00540965,0.00172207,-0.00160174,0.00156792,-0.00158381,0.00269455
-0.00629287,-0.000463623,0.00157075,-0.00216874,0.00325084,0.000608742
-0.00843674,-0.00047597,-0.000574449,0.00176768,-0.00304312,0.00339639
-0.00203714,-0.000479032,0.000518264,0.0018442,0.000693381,0.0010621
-0.00735953,-0.00260925,0.00158332,-0.00103073,-0.00228715,0.00374955
-0.00312717,0.00167596,-0.00377003,0.000899374,0.00323474,0.00404227
0.000101393,0.00179268,0.00158444,0.00180395,-0.00260121,0.00203538
-0.00738188,0.00397835,-0.00273187,0.000763148,-0.00154763,-0.00169384
-0.0179615,0.00187201,0.0100642,-0.00231089,0.000347435,-0.00577736
-0.0244092,-0.00454625,0.00153192,-0.000762358,-0.00025636,0.00160122
-0.0393457,-0.00454115,-0.00172834,0.000235781,0.00628495,0.00437552
-0.272968,0.00196216,-0.0485871,0.00275919,-0.0355951,-0.0109572
-0.410388,0.00634803,-0.0437893,0.00800154,-0.0261726,-0.00231755
-0.230039,-0.00759242,0.00399004,0.000154272,-0.00798202,0.0215079
-0.0764726,-0.00339652,0.0259049,-0.023141,0.041028,-0.0356494
-0.480891,0.0341177,-0.0762863,-0.0179687,0.0215848,0.00740731
-0.326013,0.00527424,-0.010344,0.0184409,-0.0342125,-0.0235375
-0.484924,-0.020283,-0.0332097,-0.00101052,-0.01015,0.0183014
-0.0168299,-0.0194706,0.0230289,0.0034571,0.00314707,-0.0595804
-0.377963,-0.107066,-0.134818,0.0192882,0.0440573,-0.0328114
-0.0350714,0.0200243,-0.00187209,-0.0232504,0.00624108,0.0228257
-0.0525006,0.0252656,-0.0660768,-0.0124329,-0.0385377,-0.0373455
0.216391,0.103141,-0.00894674,-0.0138138,-0.0442399,0.0862026
-0.00101699,0.0114419,-0.00809944,0.0209552,-0.0115213,0.0277564
-0.076561,-0.0141028,0.0120843,0.00876595,-0.01435,-0.0201731
-0.164031,-0.0162014,-0.00425676,0.00603294,-0.000748038,0.0166663
0.0255755,-0.00354384,-0.0143136,0.00819536,-4.8995e-05,-0.004237
0.232424,0.0112934,0.00773309,0.00237025,0.0130657,0.023383
0.311333,0.00377484,0.0187634,-0.00315784,0.0160531,0.0200861
0.580094,0.0250064,0.0591646,0.00464472,0.00147164,0.0315364
0.838399,0.00999066,0.136089,-0.00251651,-0.012682,0.00259125
0.789112,-0.0370463,0.0945409,-0.000468165,0.113347,0.0682234
1.17127,-0.00829083,0.210108,-0.0168755,-0.297054,-0.0187827
0.641048,-0.148309,-0.0666298,-0.00528027,-0.0257842,-0.0307876
0.216653,-0.383808,0.0786178,0.0126848,0.0250674,-0.136299
-2.49113,-0.132692,0.179039,-0.0483667,-0.0549824,0.153064
-1.1672,-0.114613,0.0941259,0.0244615,0.104768,-0.0693528
-0.604123,0.0439305,-0.0159102,0.0193701,-0.076943,0.00540262
-0.515239,-0.0588487,-0.110004,-0.00130008,-0.0030064,-0.0359644
0.397717,0.105196,0.0227039,-0.00326237,-0.0255095,0.0444338
0.18036,0.0626417,0.027505,-0.00156501,-0.00736398,-0.00824076
0.0522696,-0.00675126,-0.00457756,-0.00361802,0.0289333,-0.00854063
-0.204762,-0.0621678,-0.0404363,0.00833161,0.00148708,-0.00260985
-0.0811964,-0.00673288,-0.0510178,0.00228117,-0.0168468,0.0208151
0.0147029,-0.0292326,-0.0483772,0.0082107,-0.0114227,0.0232408
0.125756,0.0508573,-0.0153601,0.00727494,0.00902456,-0.0372704
0.221919,0.0316377,0.0310686,-0.00421542,-0.0183998,0.0186024
0.242114,0.0337443,0.0225824,-0.00228544,-0.00346756,-0.00664735
1.07417,0.14554,0.173488,-0.00594644,-0.0168824,0.0681681
0.591555,0.029194,0.0153739,0.00273548,-0.0438666,-0.0377067
0.760304,0.0270471,0.082263,0.00544122,-0.0350292,0.00542891
0.518068,-0.00278115,0.0238522,0.00736687,-0.00723952,0.0235725
0.296314,-0.00906,0.00276308,-0.0221961,0.0231534,0.00457692
0.509249,-0.174504,0.168105,0.00111881,-0.07929,-0.0130717
0.56629,-0.136243,0.0815272,-0.0458031,-0.0188425,0.0441841
0.60331,0.0601686,0.0184219,-0.0281468,0.0386657,0.063049
0.446514,0.0439067,-0.186134,0.00993311,0.0130293,-0.0310558
0.162462,-0.0390576,-0.105457,-0.0126823,-0.0551869,-0.0171722
0.546879,0.169162,0.0153694,-0.00572713,0.0203946,0.0373138
0.359633,0.0540397,0.0731079,0.0159897,-0.0051592,0.0165873
0.0390207,0.0489726,0.0911726,0.00263909,-0.0168501,0.0223643
0.130451,0.0634839,-0.122266,-0.0395208,0.13031,-0.0386802
-0.0998114,-0.0279139,0.0452086,0.00723268,-0.0175303,-0.0309677
-0.123319,0.0190785,0.0298568,-0.0132275,0.0497313,-0.00746107
-0.329331,0.08214,-0.037566,-0.0024299,-0.0431795,-0.0156325
-0.0979404,0.0788131,-0.00783149,0.00340207,-0.00698978,0.00689471
-0.00943167,0.0264337,0.00886532,-0.00363998,0.01135,-0.0130959
-0.197161,0.0051556,-0.022683,-0.00790711,-0.0268949,-0.0170494
-0.0423794,0.0275502,0.022626,0.00976194,0.0194086,0.026794
0.124881,-0.0409372,0.0247636,-0.00618169,0.0278794,-0.00801247
0.122607,0.00387857,-0.00331203,-0.0071523,-0.00231564,0.016438
-0.0830208,0.0189923,-0.00204541,0.000818893,-0.0145155,-0.0115359
-0.0873665,-0.00773033,-0.0136403,-0.00402308,0.00795215,0.00188804
0.334626,-0.0251221,-0.00340153,0.027658,0.0601262,-0.00792021
0.0045802,-0.0119804,0.0390854,-0.021934,-0.0529229,-0.0123907
0.0606736,0.0466081,-0.0294642,0.00818273,0.0189482,-0.00914836
-0.0468768,0.00398745,-0.0146328,0.002178,-0.00884235,0.0397823
0.0480209,-0.0184934,-0.00131028,0.00725855,-0.0244316,0.0336987
-0.0682573,0.0306844,-0.0287766,-0.0146402,-0.045414,0.0846047
-0.0351081,0.0104013,-0.00715207,0.0117075,0.00473952,0.016716
-0.179079,-0.033316,-0.0245042,-0.000803396,-0.00855142,-0.0261961
-0.00221157,-0.00354659,-0.0283089,-0.00132361,0.0167596,-0.0216645
0.0757298,-0.00783113,-0.00127804,0.00815567,0.0152693,0.0088495
0.239256,0.00821273,0.0815015,-0.0156934,-0.00540179,0.0166311
-0.0223006,-0.0622282,0.00298171,0.00207697,-0.00208676,-0.0144536
0.123311,0.0101811,-0.0642528,0.00173724,0.0282779,0.0388293
0.0819128,0.0188028,-0.0388215,-0.00798379,-0.0315902,0.00620854
-0.0318727,-0.0269709,0.00271792,-0.00182253,0.0150766,-0.0102427
0.0833246,-0.0174106,0.0223208,-0.00265685,-0.0369187,0.00788379
-0.121154,0.0233587,0.0351801,0.0209843,0.0133092,-0.0137909
-0.0297266,-0.00988021,0.00368501,0.00406045,-0.00565171,-0.0195338
0.00873364,0.0136178,0.0186342,-0.0027111,-0.0106798,0.023357
-0.0966442,0.00304868,0.0375397,-0.00526924,-0.0192161,0.0165033
-0.154391,-0.00337717,0.00317523,-0.00434414,-0.00159663,0.0310361
-0.0193441,0.045571,-0.0468543,-0.0205696,0.00552213,-0.0313427
-0.0935955,0.0264989,0.0106902,0.00577872,-0.0237901,0.0186679
0.0705994,-0.00990671,0.0318402,-0.00356102,0.0085541,0.0118798
0.0714434,-0.0441493,-0.00212505,0.00506543,-0.00681329,0.000983238
0.268436,-0.062492,-0.0215687,-0.00310285,0.0247139,0.00894725
0.0895462,0.0103042,-0.0088218,0.00923318,0.00583708,0.00320971
-0.156353,0.0906616,0.0228571,0.002588,-0.0311856,0.0136715
-0.280253,0.0308569,-0.0220933,-0.0185287,0.00651842,-0.00236207
-0.169362,0.0297278,-0.00884908,0.00504768,-0.001706,-0.00224793
-0.17692,0.00941093,-0.0237024,-0.00494939,-0.0171824,0.0125296
-0.0659975,-0.00559221,-0.00396011,-0.00352824,0.00359058,-0.0294596
-0.0436436,0.000792366,-0.00819084,0.00488231,-0.00753939,-0.0137053
-0.0777326,-0.00879222,-0.00611915,-0.00142689,0.00135082,0.00928831
-0.00852088,0.0103658,-0.0155986,-0.00983714,0.00336516,-0.0111537
0.0116816,0.00179402,-0.0218784,-0.00524779,0.00739288,-0.00231409
-0.00841398,0.0200102,0.00143268,0.00357576,-0.0172718,0.0160593
0.0973739,0.0200191,0.052045,-0.00379036,0.00808299,0.00332344
0.100426,-0.0131353,0.0309038,-0.00311185,0.00556654,0.00909227
0.0363245,-0.00779686,0.00178144,0.00326967,0.00802541,-0.00597525
-0.164034,-0.00765718,-0.00538176,-0.00112499,-0.00810438,0.0177809
0.00341488,0.0317819,0.0184947,0.00392741,0.00325656,-0.00524127
0.0949771,0.0124669,0.00827864,0.00446662,0.00489599,-0.00210804
0.139658,-0.0281739,0.000163952,-0.0129219,0.00153154,-0.00157207
0.0267677,0.00717286,0.00592163,-0.00475359,-0.010222,-0.0107841
0.0448445,-0.00353203,0.000716576,0.00513265,0.00748813,0.00149149
-0.00736322,-0.0099008,0.00163217,0.00209063,-0.00625569,0.00545776
0.016039,-0.0120656,-0.00467762,-0.000286162,-0.00484031,-0.00284553
-0.00208104,0.0146479,-0.00812554,-0.00737317,-0.00241518,0.00270844
0.032106,0.0285327,0.00580321,0.00378673,0.0108535,-0.0190464
-0.122474,0.0264901,-0.00758446,0.00903159,-0.000943899,-0.00989032
-0.0328389,0.043548,0.0129444,-0.0215688,0.0223531,0.00175101
-0.129168,-0.000294204,-0.0555152,-0.0066499,-0.00588775,0.0259551
-0.0916517,-0.00239278,-0.0179665,0.0107673,-0.00920296,-0.00382721
-0.0256505,0.00181138,-0.0284302,-0.00558123,-0.00851178,-0.000462651
-0.0787497,0.0115158,0.000155201,0.0101983,-0.00169742,-0.0322212
0.110031,-0.0355676,0.03536,-0.0162653,-0.00739032,0.0307568
0.308488,-0.010004,0.0786734,0.0143342,0.0102569,-0.0155797
-0.00526786,-0.017389,-0.00365386,-0.0160594,0.0133003,-0.0367845
0.218412,-0.0784578,-0.0109701,0.046012,-0.0614425,0.087106
0.208913,-0.101921,0.00624235,-0.0166032,0.00693983,0.0377407
-0.151503,0.0819742,-0.0561338,-0.00520882,-0.036545,0.0226346
-0.0650613,0.0936966,-0.0345164,-0.029439,0.126891,-0.0934713
0.054566,-0.00884206,0.023227,-0.0222861,-0.0324557,0.0414003
0.189946,0.0167067,0.0310463,-0.00247195,0.00528252,0.0423875
-0.308324,0.0895123,-0.0888215,-0.0339798,0.0386187,-0.00720346
-0.229851,0.0519624,-0.148118,0.0600823,-0.0740362,-0.121717
-0.289559,-0.0406118,0.031758,0.0156248,-0.0193012,0.0121544
-0.181785,0.0266387,0.0520268,-0.0183757,-0.0413562,0.0363626
-0.117708,-0.01502,0.0803159,0.0407527,0.157495,-0.0332831
0.0299366,-0.00992597,0.00283845,-0.0198588,-0.0164287,-0.0315937
-0.0605754,0.00404275,0.0109579,-0.00102858,-0.0132765,0.0156972
-0.0520523,0.0147171,0.00985063,-0.000801846,0.00813341,-0.00795913
0.0450485,-0.00454088,0.0349149,-0.000330657,0.0240426,-0.00614315
-0.0234847,0.00715976,-0.0231139,0.00158192,0.0134664,-0.00697911
-0.0575135,-0.00988336,-0.0103095,-2.5928e-06,-0.00613296,0.00840837
0.00755947,-0.0120462,0.00276965,0.00161844,0.00727111,0.00886524
0.0203719,0.00183677,0.00593209,-0.000592753,-0.00310564,0.00955355
0.132539,-0.0398174,0.0579081,0.012455,0.0190282,-0.00854528
0.0109184,-0.0707427,0.035215,0.0687171,0.0170141,-0.00111628
1.07103,-0.232837,0.0391665,0.201732,-0.0293818,-0.0093714
-0.273025,-0.165424,0.1352,0.13541,0.270448,-0.231982
1.03296,0.145983,0.408388,0.0580537,0.123424,0.0264227
0.525436,-0.0424641,0.546608,0.0414522,0.00476128,0.00154805
0.915657,0.0213946,0.581846,-0.0148381,0.0564007,0.0752304
0.301014,0.0528784,0.604982,-0.0823741,0.0637177,0.0564184
0.362834,0.12088,0.424206,-0.20657,0.0646015,0.0623594
1.23741,0.306755,0.195491,-0.233482,0.0630238,0.0340738
0.913918,0.0710852,0.286626,-0.257926,-0.355529,-0.169887
0.0460216,-0.0651352,0.203058,0.166393,-0.0490979,0.121892
0.17562,-0.193512,0.148815,-0.0182292,0.0355509,-0.000824094
-0.200686,-0.259499,0.124328,0.0089992,-0.0067707,0.00789416
-0.111221,-0.291308,0.299028,0.0181029,0.0683023,0.0369892
-0.180395,-0.312592,0.314933,0.00987031,0.0546328,0.0191858
-0.0748508,-0.262456,0.320345,0.00838265,0.00530946,0.0114933
0.179669,-0.188994,0.290905,-0.00060001,-0.0348986,-0.0108444
0.282071,-0.1335,0.304818,-0.0310732,-0.0347584,-0.0183782
0.107152,-0.0672016,0.269544,0.044925,-0.0344624,0.00834328
-0.23674,-0.0522228,0.134603,0.00222419,0.00093168,-0.0129377
0.119787,0.250397,-0.140616,0.0026816,0.00655866,0.00271642
-0.509728,0.225744,-0.461212,-0.0160917,-0.0240657,0.0164763
-0.433533,0.458366,-0.569278,-0.0382977,0.00538424,-0.0650677
-0.0829389,0.843987,-0.418748,0.0232797,-0.0534306,-0.0341893
-0.165904,0.876444,-0.219467,-0.00688002,-0.0101361,-0.000767231
-0.528936,0.702585,0.381837,-0.0580303,0.0122099,-0.0119422
-0.372504,0.835157,0.515118,0.000493586,0.0630918,-0.0497354
-0.313313,0.793631,0.617112,0.00415534,0.0178293,-0.0127363
-0.202362,0.838133,0.45804,-0.000819564,-0.0575034,-0.0224093
-0.129981,0.735837,0.633131,-0.00326115,0.0571428,0.0272734
-0.300988,0.698743,0.726755,0.0447038,0.0401836,-0.0101912
-0.108637,1.15802,0.778987,0.0566317,0.0612397,-0.0712749
-1.02536,0.943921,0.733138,0.110992,0.123717,-0.035996
-1.40755,0.000739058,-0.0175704,0.0990637,0.0933862,-0.170591
-2.78725,-0.444798,-0.668396,0.0998954,-0.175916,0.0137373
-0.659364,0.256072,-0.897896,-0.0361732,-0.259403,0.0016619
1.55873,-0.486599,-0.70207,-0.014541,-0.245982,0.119782
-1.42385,-1.17356,0.391719,-0.0795511,-0.478361,0.113911
