rotation_x,rotation_y,rotation_z,acceleration_x,acceleration_y,acceleration_z
0.797019,-0.548478,0.216417,-0.0289738,-0.381199,-0.0655816
-2.24257,-1.21984,1.04064,0.22586,0.19383,0.00646502
-2.40732,-1.67628,0.792969,0.0102169,0.0881295,-0.0151555
0.352615,0.241246,-0.403657,-0.191924,-0.174529,-0.248533
-0.0932954,0.67612,-0.531017,-0.0509359,0.106925,0.107073
0.287065,0.375705,-0.508412,0.00991553,-0.0105376,-0.0364332
-0.492265,0.430636,-0.587547,0.000980631,-0.0385283,0.0506737
-0.388577,0.721474,-0.37963,-0.0374946,-0.0588773,0.0406533
-0.340104,0.512566,-0.0949532,0.0228161,0.0343621,-0.0220252
-0.286083,0.265715,-0.126274,0.00151384,0.0147788,0.0110642
-0.184064,0.118169,-0.158055,-0.00869103,-0.00785393,-0.00296336
0.108413,-0.222468,-0.573585,-0.0326307,0.0457943,-0.121247
-0.941814,-0.64331,-1.00965,-0.0800485,-0.145361,-0.12269
-0.683421,-0.375582,-1.12153,-0.168807,-0.104252,0.0148209
-0.236954,-0.110105,-0.60766,-0.155422,-0.167254,0.255265
-0.399667,0.256001,-0.232412,0.0921496,0.171368,0.103697
-2.42754,-0.178153,-0.762867,0.313151,0.417409,0.289731
1.0074,0.535516,-1.04846,0.393598,0.235956,-0.0703671
0.210957,-0.16769,-0.357729,0.0360815,-0.156643,-0.299498
0.61806,0.340902,0.500598,-0.0805138,-0.0769515,-0.00558037
2.5166,0.141642,-0.227159,-0.173646,0.643114,-0.0250351
0.54764,-0.236748,0.00190874,-0.0949504,-0.107964,0.0350319
0.861359,-0.329771,0.0870271,0.0157853,0.0848494,-0.0393689
0.0343781,-0.270135,0.235262,0.00993682,0.0383316,-0.0496439
-0.367621,-0.193021,0.1777,-0.117758,-0.0529001,-0.00473243
-0.372757,-0.15055,0.0278203,0.0127467,0.000326931,0.0182186
0.229793,-0.00483947,-0.0734385,0.016077,0.01472,0.020543
0.474331,0.0741674,0.00923544,-0.0375089,0.00447285,-0.0371281
-0.769455,-0.0253869,-0.0385823,0.0276013,-0.0504004,-0.00750387
-1.04855,-0.00197026,-0.207527,0.0479033,0.290013,-0.0182885
-2.68843,0.352904,-0.78438,-0.0625643,-0.0251182,0.179518
-2.07685,1.08605,-0.318864,-0.0917609,-0.37175,-0.0181569
-1.08348,1.11013,0.443299,0.0702049,0.107735,-0.132428
2.28179,0.379921,0.931817,0.0830841,-0.238386,0.0453635
-0.798964,-0.408695,0.0503371,-0.0828109,0.324512,-0.0987458
-0.470282,-0.753016,-0.0124433,0.0561613,-0.105645,-0.116614
-0.413905,-0.154673,0.0960741,-0.0558752,0.0809985,0.0612133
-0.376908,-0.300041,0.0597607,-0.0116677,0.000514328,-0.0149286
-0.167244,-0.537374,0.0407147,0.0153762,-0.0196273,0.0301227
0.379134,-0.452411,-0.00480172,-0.0215672,0.0435979,-0.0259104
0.130922,-0.596394,0.0165725,0.0611122,-0.0332744,0.0504462
0.169978,-0.552741,-0.0487404,-0.00887935,0.0254851,0.0368373
-0.0937857,-0.548128,0.0314438,-0.0551591,-0.068054,-0.0396822
-0.197776,-0.426168,0.0922331,-0.0419098,0.0161812,0.0100498
0.243056,-0.382795,0.0401791,0.0277451,0.0212121,0.00867021
0.248188,-0.389264,0.00818705,-0.00679043,0.00251603,0.00566798
-0.000671723,-0.245822,0.0736383,0.0140022,-0.00141037,0.00645393
0.0499082,-0.278067,-0.0178492,-0.0255229,-0.0256894,-0.0163046
0.348453,-0.154341,0.00490288,-0.0314933,-0.010059,-0.0106417
0.0564366,-0.0836493,-0.012675,-0.0310319,0.0360371,0.0077287
0.256194,0.131023,0.0529262,-0.00905579,0.0162205,0.00321561
0.118312,0.054104,-0.0122697,0.0191408,0.00156915,0.00772393
0.577405,0.200036,-0.0488916,-0.0043501,-0.078023,0.0137779
-0.342238,0.250898,-0.071897,-0.0350801,-0.0513319,-0.0109791
-0.625389,0.363335,-0.0362896,0.00385705,0.0071665,-0.00616926
-0.0150877,0.378826,-0.0768436,-0.00444457,-0.0190704,-0.00872695
0.016905,0.496293,-0.0828259,-0.0209846,0.00226849,-0.00179124
-0.116288,0.582905,-0.091367,0.0183789,-0.0247665,0.0055598
-0.224843,0.508261,-0.0635089,-0.0344788,0.00759119,0.0142336
-0.156742,0.603238,-0.0873754,-0.0225392,0.00878382,0.00174683
-0.084361,0.645883,-0.103408,-0.00610143,-0.0103713,0.0114416
-0.176075,0.591459,-0.111947,0.0243784,-0.0239848,0.00734735
-0.115344,0.505969,-0.104753,0.0115008,-0.00707906,0.00621468
-0.108764,0.509223,-0.0737659,-0.0203459,-0.0257944,-0.00467843
-0.127992,0.500679,-0.0812612,0.000132397,-0.00918084,0.0256754
-0.116262,0.429114,-0.0732738,-0.000418216,0.00745559,0.0129122
-0.0852081,0.391754,-0.0440669,0.0137059,0.00646633,0.0125258
-0.0481435,0.188732,-0.0639806,0.0195739,0.00662601,0.0180561
0.03603,0.143812,-0.0601712,0.0139959,-0.0324621,0.014686
0.169431,0.114935,-0.0220878,-0.00677717,0.00309259,0.00301653
-0.0605759,0.0532053,0.00736704,0.00817876,-0.0201579,0.00134748
-0.0904655,-0.0439803,0.00681797,0.000359595,-0.00903422,-0.00888371
-0.0393275,-0.135872,0.014016,0.0128101,0.00843936,0.00702894
0.0855456,-0.0942514,0.0451972,-0.00934634,-0.00665772,-0.00531888
0.0246825,-0.132693,0.027055,0.00828382,-0.00505477,0.00667673
0.0108377,-0.182879,0.0326731,0.00164661,-0.0109988,-0.00152898
0.00218716,-0.205338,0.0135531,0.01082,-0.0130736,0.00149792
0.0459017,-0.162641,0.0145089,0.00850834,0.00716144,0.00285137
0.0246714,-0.142308,0.0260496,-0.0203081,0.00471681,0.00310713
0.0246747,-0.174349,0.0294643,-0.00409675,0.018913,-0.00201124
-0.0200937,-0.219177,0.0306536,0.0136722,-0.0164448,-0.00210321
-0.0607196,-0.222391,0.00808655,-0.00661875,-0.00424248,0.00191659
0.0246795,-0.267267,0.0386143,0.000339001,-0.00471729,0.00985932
0.105628,-0.317535,0.0381746,-0.00602227,0.0041998,-0.00483149
0.0812378,-0.275829,0.0538389,-0.00670755,-0.0244833,-0.00656754
0.0278899,-0.290762,0.0430513,0.00692856,-0.00919974,-0.0042994
0.101386,-0.265191,0.0367496,-0.0183095,0.0144063,0.0182527
0.0672939,-0.294002,0.040016,0.00867155,0.00163209,0.0080685
0.0598468,-0.296129,0.042138,-0.00347875,-0.00467372,0.000843346
0.105567,-0.300464,0.0263101,0.00386959,0.0130565,-0.00274956
0.076842,-0.300429,0.0336813,0.0014393,-0.00443166,0.00981021
0.0759079,-0.26728,0.0526937,-0.00629804,-0.011863,-0.000968337
0.0374316,-0.271558,0.033345,-0.00478128,0.00372678,0.000905573
-0.0156999,-0.237299,0.0542952,-0.00554395,-0.000177205,0.00178188
0.0374531,-0.216015,0.0319186,-0.00876397,0.000277221,-0.0031597
0.040787,-0.13267,0.0474168,-0.0174168,-0.0113758,-0.00252193
0.0204492,-0.10064,0.0289687,0.0112044,-0.00527984,-0.0050962
0.00759321,-0.0739506,0.0148594,-0.00873533,-0.00138479,-0.0082885
-0.000864485,0.0339472,0.0162648,-0.00800586,-0.00465411,-0.00386161
-0.0127325,0.0595472,-0.0106593,-0.0105199,-0.00548059,0.00170964
-0.00844849,0.090523,-0.00977464,-0.00704356,-0.00641507,-0.00340807
-0.0190521,0.10443,-0.0024251,0.00455576,-0.000989079,0.00111669
0.000131228,0.137526,-0.0047041,-0.00403179,-0.00314385,0.0057475
-0.0127724,0.0947801,-0.0205023,0.0185552,-0.00705326,0.000503361
-0.00539962,0.0509611,-0.0308778,-0.00515509,0.00495291,0.00473511
-0.0212722,0.0542089,-0.0127936,0.000401556,-0.00273228,-0.00284243
-0.0276319,0.0317946,-0.00519283,-0.00844158,0.00102657,0.00788218
5.59939e-05,0.0253608,-0.00718396,0.00939173,0.00262284,0.00137806
-0.00740743,0.00293572,-0.0059971,-0.00271375,-0.0011431,0.00580794
0.00753241,0.00933907,-0.00277686,0.00427876,-0.0030008,-0.00165504
-0.0233468,-0.0119915,0.00258636,-0.00495631,-0.00118226,0.000541866
-0.00415762,0.00722124,0.00253439,0.00253807,0.00342023,0.00273216
-0.020154,-0.00665454,0.00149469,0.00165623,-0.00935423,0.0023728
-0.00740918,-0.000268061,-0.00597804,-0.000168115,0.00489718,0.00321919
-0.00422786,-0.00561609,-0.00806636,-0.00144519,-0.00181556,-0.001266
-0.00950613,0.0040155,-0.00067114,-0.00363781,0.00110841,0.00264704
-0.0116331,-0.00132369,0.000427566,0.000172332,-0.00383598,0.00225949
-0.0201385,-0.00131007,0.00359747,3.2559e-05,-0.00307029,0.00113356
-0.0296895,-0.000223231,0.00996478,0.00341552,0.00222796,0.000478029
0.0149878,0.00292498,-0.00270878,-0.00363329,0.00214881,0.00194311
0.0555031,0.01465,0.000572899,-0.00292359,0.0122388,-0.000903308
-0.0135073,0.0147752,0.0419821,-0.00571458,-0.016785,-0.00211966
0.0535748,0.0243238,0.0336234,0.00102375,0.00394893,0.0028342
-0.043365,0.00731427,0.038714,0.000448912,-0.00542587,0.00829655
-0.017821,0.0136952,0.0334254,0.00372626,0.00206834,0.00404131
0.0119318,0.00296866,0.0207848,0.00300209,0.00718457,0.00394017
0.0150347,-0.00560579,0.00589458,0.00199425,-0.0072192,0.00302267
-0.0149461,-0.00348995,-0.0188056,-0.00680463,0.0045138,0.00808352
0.0234946,0.00611696,-0.00590164,6.88434e-05,-0.0125342,-0.0022763
-0.00626424,0.00509421,0.00681343,-0.00136559,-0.00286448,8.32677e-05
-0.00519708,0.00829786,0.00679693,0.00183813,-0.00604486,0.00437766
-0.0106078,-0.00453893,-0.00596128,0.00184855,0.00145429,0.00469053
0.00429855,-0.00134988,-0.00806172,0.00146976,0.0111236,0.00266194
0.0181737,0.00719163,-0.00486141,-0.000874966,-0.00311494,-0.00319213
-0.0127422,0.00187064,-0.0070807,-0.00620981,-0.00493211,0.0026359
-0.00843157,-0.00345875,0.00151786,0.00375967,-0.00217175,0.000838399
0.00646999,0.00293301,-0.0016718,-0.00228646,-0.00025773,0.00472599
0.00541204,0.00507144,-0.000619855,0.000584215,-0.000182927,0.0013963
0.0161619,0.0157728,0.0143065,-0.00315572,0.00273705,-0.000639737
0.0205369,0.024347,0.0324306,-0.00599682,-0.00124466,0.000276685
-0.000678306,0.010506,0.0495366,0.000407606,-0.00669354,0.00107032
0.0248146,0.00405518,0.0368528,-0.000118896,-0.00251853,0.0090583
0.0269217,0.00725044,0.0325667,-0.00380309,0.00306106,-0.00324035
0.0994097,0.0200221,0.0370288,0.0106952,-0.00997084,0.0100933
0.0928417,0.0157044,0.00818263,0.00893252,0.00646949,0.00544471
0.0448099,-0.0099178,-0.00358182,-0.00707793,0.0178709,0.000537336
0.0212924,-0.00778528,-0.0165071,0.00991727,-0.0416276,0.0152615
0.0393784,-0.000331888,-0.0218277,0.00125946,0.0157407,-0.000930548
-0.0266414,-0.0291065,-0.0122728,-0.00225802,-0.00849301,-0.00316006
-0.00313531,-0.028037,-0.00150781,-0.004645,-0.00951123,-0.00582355
0.0565435,0.0028936,-0.00255251,-0.00218296,0.00454992,0.00332934
0.083066,-0.0110432,-0.0205294,0.00463918,0.0197392,0.0138943
0.934821,0.0671569,-0.136445,0.0878026,0.159904,-0.173439
1.83123,-0.283613,-0.587041,-0.150165,0.198207,0.0140899
1.11623,-0.555124,-0.391361,-0.109817,-0.211801,-0.0881112
2.73416,-0.289906,1.09171,-0.0568013,-0.438995,0.0724963
1.23082,0.363386,1.40558,-0.0748019,-0.167076,0.368702
-0.389298,-0.0572908,0.816734,0.130525,0.178118,0.0465925
0.482147,0.0475667,0.0714038,0.0271303,0.0597076,0.00565952
-0.34429,-0.183457,0.158489,-0.0354704,-0.0216812,-0.0558974
0.00900786,0.0756774,0.0598346,0.0304227,-0.0227063,-0.0247484
-0.0849863,-0.0599596,0.0336511,-0.0299938,0.00627023,-0.00193799
-0.00851462,-0.0162997,-0.0112201,0.00342104,0.00978464,-0.00589085
0.240751,0.064665,-0.0289765,-0.00995995,0.0301026,-0.0137886
0.742037,0.184808,-0.134723,-0.0938656,0.00729826,-0.051486
-0.0438913,0.118237,-0.059237,-0.0575162,0.0737084,0.0328094
-0.515011,0.155794,0.444129,0.151562,-0.276553,0.253866
-0.516302,-0.198415,0.0820819,-0.0339257,0.0426266,-0.0836341
-0.477407,-0.0437341,-0.0202772,-0.0337862,0.0393254,0.0227734
-0.138452,-0.0546338,0.00136116,0.0149509,-0.00982189,-0.00107074
-0.0128233,0.0317526,-0.0233026,-0.0143419,0.00200313,-0.0120538
-0.0361657,-0.0130592,-0.00279752,0.0115613,0.0223732,0.00875324
0.0160964,-0.000266907,0.00479426,0.0107479,0.00084573,0.00270492
-0.0382308,-0.0087659,0.00785082,-0.000636876,0.00690764,0.00387907
-0.0243938,-0.000236325,0.00464198,0.00310242,-0.00209606,0.00368607
-0.0415035,-0.00771785,-0.00498923,-0.00239089,0.00468302,0.00189173
0.023619,0.0125629,0.0143546,0.00319988,0.00412017,-0.00326729
0.0141229,0.0211421,0.0292209,0.00114822,-0.000562131,-0.00181764
-0.000787404,0.0350386,0.0290777,0.00281948,7.7486e-06,-0.00357288
0.0033644,0.00616654,0.0132529,0.00587052,0.00460815,0.0086354
0.0152424,0.0264963,0.03774,-0.000890493,0.00711125,-0.00138533
-0.0199015,0.02546,0.0408205,-0.0124438,0.00376248,0.0016039
0.0524341,0.0275072,0.0207765,0.0179572,-0.00111085,0.0147531
0.194884,0.12801,0.134983,-0.0237801,0.00661224,-0.00839591
0.0452731,0.0991583,0.0640913,0.000723109,0.00789368,0.00606328
0.0217942,0.0500352,0.062185,-0.000948995,0.00760561,0.0118614
0.0375842,0.035015,0.0313554,0.00488845,-0.00872958,-0.00101882
0.0661848,0.00397063,0.00602182,0.00441636,0.00143331,0.00679809
0.02156,-0.00984452,0.0283846,-0.0070852,0.00917476,0.00357109
-0.0723646,-0.0311793,0.00359342,0.0108515,0.00194055,0.0148304
0.046016,0.015756,0.0176239,0.000834063,-0.00167632,-0.00044775
-0.0457999,-0.037629,-0.00801814,-0.000458747,0.00708157,0.00503325
-0.0266591,-0.0130905,-0.0166517,-0.0183933,0.00462484,-0.00324923
0.200494,0.0711719,0.00929403,-0.0175644,0.0338205,-0.00157785
0.0958007,0.077579,-0.0370823,0.0140212,-0.00574541,0.0114727
0.778207,0.145247,-0.140742,0.00177191,0.0818572,-0.0216264
0.38149,0.101967,-0.0169399,-0.00555708,0.00231165,-0.0190328
1.0866,0.302595,-0.433361,-0.0241864,0.0944912,0.0403749
1.40067,0.558612,-0.500091,-0.0444736,0.0597427,0.00752199
1.20258,0.352658,-0.465306,0.0786233,0.0249681,0.0119233
0.748782,0.031998,-0.774776,-0.00458757,0.0402376,0.0011996
0.486108,-0.212992,-0.489965,0.0371389,0.20505,0.0444849
-0.634277,-0.0703861,-0.0580889,0.185794,-0.239002,0.200791
-4.11379,-0.581664,-0.116951,0.085609,0.0341574,0.0667279
-0.148291,-0.244054,-0.201522,-0.191763,0.107264,-0.0965168
0.262511,0.145951,0.038958,0.0566201,0.00828564,0.0242515
-0.0853534,-0.0910387,-0.0249156,-0.00585824,0.00220412,0.00902027
-0.00947961,0.0189764,0.00243597,-0.00491221,-0.00485098,-0.00986654
-0.00621751,0.00938084,0.0142632,-0.0126782,-0.008156,-0.00548196
-0.00110609,-0.0141832,-0.019755,0.0201362,0.00985986,-0.00223041
-0.0233869,-0.0152064,-0.00380543,0.00613707,-0.0059554,0.0074811
-0.034048,-0.0141326,-0.00491981,-0.00233367,-0.00534368,-0.00282216
-0.00956083,-0.015223,-0.00803001,0.0100549,0.00723058,0.00079006
0.00222627,-0.0109416,0.00267331,0.000921115,0.000712037,0.00404334
0.00118267,0.00722177,0.00468958,-0.00584108,0.00472641,0.00212848
9.68901e-05,0.00508063,0.00149395,0.00261368,-0.008003,-0.00304693
0.00215766,-0.0205745,-0.00794783,0.0089796,2.90275e-05,0.00198275
0.0118245,-0.0194904,0.0049012,0.00500533,-0.00645441,-0.00529748
0.0149797,-0.000280622,-0.00375828,0.000346757,0.00506318,0.00382555
0.0128524,-0.00561826,-0.0026629,6.97523e-05,-0.00180513,-0.0035373
0.00221088,-0.00347011,-0.00057987,0.00411977,0.00262678,-0.000275552
0.0096904,-0.000265708,0.00263308,0.000578359,0.0030573,0.00088048
0.00323622,-0.00668539,-0.00696862,-0.00350642,0.00420582,-0.00010699
-0.00954839,-0.00347207,-0.00703552,0.00171697,0.00043422,-5.21541e-05
-0.00099657,0.000802441,-0.00275885,0.00451274,0.000693381,-0.00473791
-0.0041702,-0.00452899,0.00153829,0.00482506,-0.00659221,-0.00354373
0.00115953,-0.000259894,0.00152991,0.000170827,0.00219935,-0.00159788
0.00115976,-0.000261137,0.00153257,0.000237912,0.00814146,0.00432611
0.0096664,0.00293159,-0.00166191,-0.000563107,0.00235647,-0.000556469
0.010733,0.00506718,-0.00167177,0.000106826,0.00439811,-0.00241327
0.00859391,0.00186256,-0.00272792,0.000199124,0.00377738,-0.00318772
0.0075438,0.00720819,-0.000629899,-0.00722498,0.00131112,-0.00400496
-0.00205355,0.00507775,-0.00172179,-0.0037964,-0.00256842,-0.00198495
0.00970308,0.0125551,0.00361722,-2.02432e-05,0.00944126,0.00272363
0.0085955,-0.00774932,-0.00159714,0.00271328,0.0107132,0.00780272
0.000103823,0.00615065,0.00255558,-0.000907958,-0.00302339,-0.00337636
0.00859507,-0.00881805,-0.00158907,0.000200093,0.00695318,0.00555933
0.00432801,-0.00561138,-0.0026959,0.00243926,0.00422144,0.00270945
-0.00522919,-0.00452712,0.00260447,0.00208007,0.000155151,-0.0033251
8.01873e-05,-0.00239943,-0.000596685,0.00223175,0.00102168,0.000494123
-0.00522713,-0.000253946,0.00257592,0.000529215,7.98702e-05,-0.00148404
0.00221666,-0.004536,0.000494563,-0.000368804,0.00305861,0.00148493
-0.000971919,-0.00132729,0.00153055,0.00246849,0.000281811,-0.00134099
6.59726e-05,-0.00560863,-0.00271093,0.00623687,0.000203371,0.00352448
0.00229813,-0.00771626,0.0144051,0.00896223,-0.00628483,0.000802994
-0.000952729,-0.00132178,0.00473612,-0.00533889,0.00540781,-0.00415224
0.00539354,0.00720428,-0.00384346,-0.00647368,0.00600058,-0.00143456
-0.0405883,-0.00135348,-0.0306714,0.00539194,-0.00413692,-0.00708556
0.00968132,-0.00560836,0.00159886,0.00676703,-0.000774324,0.00232702
0.0107868,-0.00239317,0.00799237,0.000126973,0.00501919,-0.00302321
0.0107671,-0.00346732,0.00479467,0.000999078,0.00499666,-0.00538749
0.00546702,0.000817622,0.00901932,-0.00527403,-0.000437975,-0.00418133
0.0108271,0.00189141,0.0143741,0.00642729,-0.00169271,-0.00262469
-0.00097554,-0.00880522,0.00158026,-0.00192067,0.00800082,0.00118375
0.00331584,0.0114931,0.00466958,-0.00587676,-0.00275928,0.00206518
0.00655441,0.0061633,0.0121943,0.0050194,0.000290006,-0.000612259
0.00120123,0.00615961,0.00790093,0.00676759,-0.00104591,-0.00206703
0.00981757,-0.00129591,0.0240077,0.00592607,0.015137,0.01153
0.00763974,0.00723575,0.0153979,0.00413278,-0.00882843,-0.00752336
-0.000996395,-0.012015,-0.0016053,0.0126039,-0.00695616,0.00325459
-0.00956607,-0.000272499,-0.0102629,-0.0109496,0.00835359,0.00573713
-0.00525746,0.00294114,-0.00278677,0.00621551,-0.00264984,0.00285375
0.00109413,-0.0163002,-0.00798104,-0.00472914,0.00649703,-0.00495231
-0.00524479,-0.00987098,0.000500366,-0.00467208,0.00634938,0.00655997
0.00753739,0.00720641,-0.00169855,-0.00910501,0.00707221,-0.00285941
0.0161223,0.0136262,0.00790753,-0.000148863,0.0063087,0.00347608
0.272819,0.0262218,-0.00830743,-0.0287445,-0.0277037,-0.0353585
-0.0392719,0.0275558,0.00867882,0.000795014,-0.0372364,0.0250002
-0.24503,-0.0663095,-0.00216782,0.0235106,-0.017228,0.00270903
-0.165986,0.0169953,0.0232308,-0.0207967,0.0279086,-0.0266675
0.0147959,-0.0996621,-0.0255514,0.0489392,-0.00159121,-0.149477
0.760078,0.0985742,0.0389906,-0.0189124,0.0315966,-0.0910747
0.59826,-0.0664968,0.255281,0.0849263,-0.00953814,0.214212
0.263459,-0.0161138,0.212032,0.00457169,-0.134885,-0.0611633
-1.32537,-0.00565803,0.00621509,-0.0174702,-0.0338165,-0.0282825
-0.541714,-0.0149571,-0.0858833,0.0422721,-0.0100542,0.017203
-0.0421972,-0.0784097,-0.114586,-0.00867199,0.017054,0.00526834
-0.0191734,0.00293355,-0.0135247,-0.00631148,0.00990355,-0.0148454
-0.0127371,0.0125537,-0.00715242,-0.00537997,0.00835776,0.00433207
0.0117728,0.00505955,-0.00594294,0.00898127,-0.00246221,0.00250697
-0.010566,-0.00986565,0.00154999,-0.0143055,0.00818121,0.000749469
0.00863902,0.00294464,0.00474257,0.00981282,-0.00672805,0.0200495
-0.0042229,-0.0205651,-0.00583668,-0.00729199,-0.00212055,-0.000779986
-0.00411005,0.0264619,0.00881633,-0.00565688,0.00352341,0.00417572
2.42693e-05,-0.0120281,-0.00908195,-0.00104039,0.00800699,0.00642484
0.00763119,0.0285942,0.0120536,-0.0013009,0.00413996,0.00170636
0.0106598,-0.0131097,-0.0122408,0.00410502,0.0141472,-0.00775754
-0.011573,0.0179216,0.00884453,-0.00158626,0.00291169,-0.00512439
-0.0010758,-0.0173781,-0.0143927,0.00867058,-0.000950813,0.00280726
0.00654062,0.0168393,0.00892041,-0.000785962,0.00626469,-0.000539362
0.0159131,-0.0216806,-0.0239167,0.0118211,0.00797844,-0.00974607
0.00757516,0.0189661,0.00356711,9.00701e-05,0.0080542,0.00375921
0.0170781,-0.0141756,-0.00793544,0.0158691,0.00853974,0.00815159
-0.0105252,0.0083043,0.00677173,-0.00536267,0.0042116,-0.00410575
-0.00419835,0.00293861,-0.00385153,0.00852872,0.00341618,0.00253403
0.0139806,0.00508059,0.006886,0.00374515,0.0238898,-0.000337362
-0.0116354,-0.00452464,0.00044054,0.00249396,-0.000798464,0.00523591
-0.00202623,0.00828894,0.00253308,-0.00439653,-0.000646293,0.00127685
-0.00734345,0.00402504,0.00467525,-0.0031848,0.00287545,0.00908828
-0.0202321,-0.00881153,-0.0113168,-2.19345e-05,0.0150475,-0.00494289
0.000110181,0.00615269,0.00362366,0.00427236,0.00617427,-0.000654697
-0.00956328,-0.0205652,-0.00799291,0.000809282,0.00630754,-0.00526536
-0.0190226,0.0104533,0.0110024,-0.000585899,-0.00296217,-0.00517774
-0.0171164,-0.0173823,-0.0240699,0.00513894,-0.00172871,-0.00296831
-0.0169447,0.00616352,0.00249148,0.000888526,0.00173616,-0.00451034
-0.0265953,-0.0130709,-0.00596914,0.00887306,0.000291526,-0.0030489
-0.0158565,0.00083036,0.00680146,-0.00451475,-0.000345647,0.00252163
0.0128596,-0.00347899,-0.00161047,0.00288302,0.00341523,0.00645316
0.0352442,0.000779138,-0.000486393,-0.00185092,0.00893563,0.00303352
0.00224162,0.00722013,0.00362292,-0.00485475,-0.0141305,0.0030992
0.00750476,-0.00668686,-0.0058839,-0.000908256,0.00854301,0.00190353
-0.00416373,0.00828894,0.00145606,-0.000696689,-0.000178099,3.15309e-05
0.0181508,-0.0131074,-0.00686754,0.00822824,-0.000320792,0.000974
0.0595868,0.0167334,-0.029347,-0.00314604,0.0034287,-0.0114836
-0.00528676,-0.00454368,-0.00701215,0.0010384,0.00134343,0.00461322
-0.0935858,-0.00550397,0.0161681,-0.00234213,0.00323319,0.00348425
-0.171458,-0.0172204,0.00206343,0.000376001,0.00166684,-0.00165898
-0.0862422,-0.00554267,-0.00303717,0.00202869,0.0142119,0.00308996
-0.0233982,0.000811274,-0.00711553,0.00251815,0.00423688,0.00745392
0.0298986,0.00291308,-0.00372379,0.00272895,-0.000531912,0.00260115
0.250288,0.0229896,-0.0340144,0.00346214,0.00548524,-0.00466454
0.02245,-0.00241816,-0.00158107,-0.00145195,-0.000165343,0.00955111
-0.0296199,-0.0140861,0.0228737,0.000899851,0.023252,0.00160491
-0.0403497,-0.0098281,0.00998525,-0.00182784,-0.000879824,-0.00217152
-0.0105544,0.000818864,0.00254769,0.00201316,0.00297886,0.000545561
0.0032828,-0.00346905,0.000492585,0.00199475,0.00241214,0.00409269
0.0744352,0.0188373,-0.0410563,0.00597315,-0.00763512,-0.00794637
0.0213562,0.00505045,-0.00697536,-0.000371039,0.00395596,0.00836939
-0.0402586,-0.00659755,0.0249232,-0.00117484,0.00393289,0.00127554
0.148127,-0.0110728,-0.00960216,-0.00139485,0.00444502,-0.00388753
0.120465,-0.00463258,-0.00333491,0.00224169,0.0199158,0.0108269
-0.0436497,-0.0119916,-0.00710891,0.0030012,-0.0202591,-0.0166084
0.0119013,0.00616445,0.0154206,-0.0030155,0.0117406,-0.00140023
-0.0328677,0.0115344,0.0120106,0.000618584,0.00378019,0.00645858
0.0150428,-0.00132915,0.00693106,0.000140242,0.00203368,-0.000196636
0.0108188,-0.00238425,0.0133355,0.00235233,0.00283691,-0.00394517
-0.26202,-0.026763,0.00392426,-0.000832871,-0.0209766,-0.00720251
-0.141599,0.00626148,0.0041594,-0.00190809,0.00583047,0.00738692
-0.0564669,-0.00985557,-0.0125117,0.0049725,0.00688279,0.00264031
-0.035201,-0.0227008,-0.01876,-0.0045178,0.00332022,-0.000712097
-0.0169384,-0.00665028,0.00470978,-0.00633425,0.0107346,-0.0035668
-0.0233407,-0.0119883,0.00365188,0.000942111,0.00216484,0.00677425
-0.00736092,0.00722346,0.00145033,0.00121418,0.00294232,0.000129461
-0.005249,-0.00560038,-0.000595125,-0.00172585,0.00459051,-0.00104964
0.0256002,-0.00563793,-0.0090281,-0.000793919,-0.00039053,0.00130391
0.183329,-0.00895183,-0.00307295,-0.00259237,0.00723988,0.003793
0.363668,0.00701058,0.0402368,-0.00365812,0.00454456,-0.000855386
-0.0562289,-0.00658113,0.0269987,-0.00612253,-0.00437894,0.0152584
-0.028765,-0.0130793,-0.0123905,0.00558399,-0.00945088,-0.0063979
0.197297,0.0177725,0.0139012,-0.0050681,0.0105934,0.000707269
-0.521698,-0.0531765,0.0576113,-0.00449978,0.00185663,-0.00603849
-0.0977009,0.0586242,0.0349693,-8.94964e-05,0.0720441,0.0341269
-0.24623,0.00948293,-0.0315122,0.00966387,0.0119936,0.00467658
-0.172678,0.00623223,-0.0258729,0.00443819,0.00738537,0.00263202
-0.125689,0.000888594,-0.00750036,0.00407661,0.00391263,0.00250566
-0.198052,0.00951431,0.00713162,-0.00232828,0.00525087,-0.0231179
-0.126721,0.00410312,-0.00218245,-0.00495014,0.00686705,0.00075531
-0.175784,0.00946619,-0.0109491,-0.0141912,0.0324659,0.0158525
-0.187582,-0.0172486,-0.0215043,0.00876091,-0.0193931,-0.015676
-0.131012,-0.00230982,-0.00643177,-0.00123267,0.0002442,0.00469267
-0.077655,-0.0204839,0.00884622,0.00269292,-0.00262088,-0.00210023
0.442938,-0.00680976,0.112208,-0.0173397,0.0337829,0.00857747
0.0810983,-0.0291499,0.00842732,0.0195607,-0.0272094,-0.0102378
-0.0181697,-0.0440787,-0.0196273,-0.000892647,0.00980037,0.00725436
0.00322893,-0.00882449,-0.00802143,0.00202864,0.00830781,0.00914669
0.0883692,-0.00891876,-0.0247961,-0.00540055,-0.001095,0.00081569
0.0734484,0.010317,-0.0271153,0.00244392,-0.00601989,0.00231004
-0.0576432,-0.0013426,-0.0318037,-0.00730222,0.001706,-0.000625372
-0.195062,0.0169278,-0.0281642,0.00243182,-0.00310904,-0.00212187
-0.143868,-0.0140697,-0.0170866,-0.00597434,0.0117261,0.00574136
-0.147972,-0.0044071,0.00847613,0.00287767,-0.00485194,0.00726241
-0.126693,-0.00336434,0.00320709,-0.00511584,0.00365335,0.00220674
-0.11064,0.00839196,0.0138765,-0.000770964,0.00937462,0.00443625
-0.0742928,-0.0599552,0.0400992,-0.0151015,0.00222081,-0.014241
-0.0313936,0.0234011,0.0792515,-0.00404911,0.0139641,0.0117387
0.0843231,-0.0109874,0.0115269,-0.0101241,-0.000327587,0.00241059
0.266624,0.00065246,0.0270918,-0.00444913,0.00452685,0.0109229
-0.0121654,-0.0292443,-0.0859451,-0.00423856,-0.0106772,-0.00436699
0.0629651,-0.00350904,0.00285102,-0.00312917,0.00350636,0.00176227
-0.0301166,-0.0751106,-0.0547264,0.00568143,-0.00650334,-0.000547767
0.136484,0.0156598,0.000864724,-0.00173852,0.00021106,0.00556546
-0.596917,-0.0404889,-0.0495969,0.00457719,-0.00830114,-0.0052489
-0.282325,-0.00433537,-0.00805201,-0.00512096,0.0179355,0.0058167
-0.228205,-0.0525021,-0.0406602,0.00937557,-0.00542283,0.00210094
-0.180935,0.00524859,0.0189777,-0.0069793,-0.000622213,-0.00592363
-0.307256,-0.0471622,-0.07518,0.0111879,0.00670391,-0.00401461
-0.256906,-0.0439169,-0.0301375,-0.00200692,-0.00697523,-0.000995755
0.0201986,-0.00031582,-0.0219032,0.012416,0.0115076,0.00783324
0.0225405,-0.000255633,0.0133634,-0.0112807,0.000211954,-0.00493515
0.54389,0.00798698,0.0654788,0.00838944,0.0187063,0.0117322
0.0428885,-0.0248062,0.0328318,-0.00407806,-0.0206605,0.00679123
0.0522572,-0.0451704,-0.00226023,0.0143429,-0.00101751,0.0337461
0.171804,-0.0259742,0.0311841,-0.00208348,-0.0583945,-0.0100825
0.087722,-0.0152025,0.0457565,0.0151107,-0.0751379,-0.00739038
0.0404298,-0.00247112,-0.0239503,-0.00213265,-0.0105432,0.00617456
-0.364465,0.0117184,-0.025557,-0.00418666,0.00263876,0.00558412
0.0167596,0.0391337,-0.065979,-0.00544974,0.0152716,0.0438051
-0.113979,0.0564146,-0.014227,-0.00695686,0.0228057,0.00365794
0.0712487,0.0135027,-0.0388972,-0.00142068,-0.0272834,-0.00185221
0.0823469,0.0435302,0.0325333,-0.0119363,0.00942332,0.00792599
-0.00106789,-0.00135472,-0.0144975,0.000741407,-0.00891018,-0.0139617
0.158277,0.0360773,0.0798793,-0.00338373,-0.0227207,-0.0112282
0.281471,-0.0634611,0.0211514,0.000510797,0.0239056,0.0105605
0.212136,-0.0110981,0.00345838,-0.0127781,0.0150506,-0.00925046
0.429752,0.0763902,0.0378968,-0.0241784,0.00653744,-0.0260184
0.238528,0.0336671,-0.0416065,-0.0062606,0.0205231,-0.016268
-0.719212,-0.0947966,-0.00482793,0.0134766,-0.0268185,-0.00863671
-0.222237,-0.011734,0.0627376,0.0183877,0.0768984,-0.00970066
0.0439104,0.0413983,0.0195859,0.00339225,-0.00653648,-0.00246352
-0.139378,-0.00439401,0.0202633,-0.00369072,-0.015195,-0.00515771
0.0282713,0.0393754,0.0772347,-0.00402066,-0.0153439,0.0314237
-0.579229,-0.364555,-0.269665,0.0837223,-0.0409594,-0.144684
1.34581,-0.70343,0.417135,0.0138555,-0.000410259,-0.339006
-0.176722,-0.306013,0.394968,-0.214058,-0.107016,-0.0780641
-4.78997,-1.50213,0.390793,0.0340392,-0.104614,0.214575
-1.36411,-0.660134,0.180196,0.0194989,0.0196458,0.291227
-0.0245311,0.605614,0.10542,-0.124051,0.0258299,0.19805
0.333945,0.908803,0.15608,-0.0635136,0.0823113,0.104997
1.04373,1.26045,-0.0273148,-0.012113,-0.0126713,0.0395403
0.387404,0.828401,0.0157664,-0.0355919,-0.119035,0.0423491
0.310364,0.180377,0.19811,0.0734113,-0.0680952,-0.0534928
-1.15043,0.0458452,0.212746,0.115572,-0.0771027,-0.0284871
-0.845737,-0.225991,0.0521774,0.066119,-0.0468855,-0.0478775
0.0606376,-0.282323,-0.00496513,-0.00880127,-0.0313547,-0.0505636
-0.796455,-0.646,-0.043213,0.122772,0.0771734,-0.0303795
-0.748035,-0.567487,-0.327748,0.192382,-0.0083217,0.148049
-1.0817,-0.284696,-0.0231166,-0.135552,-0.0472187,0.0377411
-0.174664,0.128345,0.165647,-0.0201796,0.0399422,0.0086211
0.0922527,0.394999,0.0537991,-0.0375277,-0.00737953,0.0555891
0.921459,0.259245,-0.249927,-0.0129633,0.125234,-0.0724919
0.707114,0.221841,0.258094,0.0115383,-0.119573,0.0126348
0.107153,0.0905917,0.0782661,-0.0377536,0.0705838,-0.0148054
0.135067,0.128014,0.11018,0.00949852,0.025445,0.0150933
-0.189911,0.105074,0.29075,-0.0131552,0.0376746,0.0805316
0.455702,-0.0231581,-0.0682056,-0.0820104,0.241692,-0.0810773
-0.267169,-0.115353,0.0418722,-0.0217318,0.060864,0.0273753
0.112614,0.0807026,-0.0765738,0.0130962,-0.023234,-0.0188119
0.127837,0.469991,-0.416671,0.0190283,-0.00677407,-0.00862628
0.410191,0.237255,-0.218578,0.0103399,-0.00961274,-0.0175872
0.255662,0.103101,-0.0334441,-0.0132308,0.064081,0.0289538
0.520827,0.0764693,0.122645,-0.0220944,-0.0186561,0.0324867
0.671141,0.108419,0.132618,-0.00361641,-0.00859439,0.00613248
0.0533855,-0.0344724,0.00729057,0.0432453,-0.00864011,-0.036919
-0.226908,0.000964717,-0.00680788,-0.0477677,-0.018378,0.0311879
-0.283534,-0.0236012,-0.0303691,0.0351519,0.021334,-0.00731462
-0.0552675,0.00193056,0.00878641,-0.0193941,-0.013538,0.00364071
0.0108897,0.0499701,0.0204759,-0.0369555,-0.0076952,0.0124373
-0.0530459,0.029724,0.0214367,0.0169959,-0.00529498,0.0011884
-0.125676,-0.0108574,-0.00421577,0.00536028,-0.0136934,-0.012095
-0.0608817,0.0424361,-0.0427821,0.0193024,-0.00410461,0.0107806
-0.0715003,-0.0889136,-0.0248758,0.000781491,-0.00474197,0.0163129
-0.0436311,0.0243245,-0.00733911,-0.00191826,0.0026409,0.0100247
-0.0192097,0.0445738,-0.0234055,0.000470027,0.00201625,-0.0055393
0.238789,0.0572394,-8.73366e-05,0.00637656,-0.00569683,0.0322152
0.352597,0.0570927,-0.0338473,0.0309792,0.0145099,0.0147966
-0.0158875,0.078786,-0.00545279,-0.00721194,-0.000890553,-0.00947827
0.0586917,0.0242577,-0.00161435,0.0101206,-0.00318402,0.00628746
-0.12609,0.0680561,-0.0805877,-0.010132,-0.0130539,0.0113995
-0.0387095,0.0177948,-0.0745925,0.00241829,-0.000229239,-0.00562215
-0.11425,0.178089,-0.07057,0.00763334,0.0013836,0.0528332
0.0640998,0.134285,0.00196741,-0.00329447,-0.01134,-0.0259238
0.172765,-0.0708667,0.0175959,-0.0239678,-0.0609929,0.0378537
0.0129592,0.0285885,0.0120772,-0.0220621,0.0431308,0.0120255
0.0138159,0.0327989,-0.0232056,0.00305389,-0.0127913,0.00546527
0.0148645,-0.0142011,-0.0218271,0.00855502,0.0176198,0.0051654
-0.242899,-0.0150471,-0.00676194,0.00399466,-0.0122699,0.00270683
-0.879,-0.179044,0.00901784,0.0171275,-0.00242388,0.000188649
-0.596676,-0.235873,0.00830632,0.0105223,0.0235462,-0.00138247
-0.520079,-0.210333,-0.014011,0.00335145,-0.0043121,-0.00128621
0.224879,0.0550942,-0.00973643,-0.00794986,0.0139208,0.00899267
0.320208,0.158456,-0.11369,0.0146693,-0.0174831,0.0432483
0.148069,0.0626014,-0.0260999,0.00735608,-0.0138235,-0.0412206
0.00952993,0.074448,-0.0309695,-0.00136146,-0.0506318,-0.0075804
-0.55964,-0.0351853,-0.052689,0.000768542,0.00621498,-0.0202179
-0.177776,-0.0599186,0.0183502,-0.0114055,-0.00192714,0.0136707
0.203741,0.0412755,0.0201913,0.0104478,-0.000939369,0.00447208
-0.239725,-0.0225338,-0.00990411,0.00992817,-0.0149857,0.0077253
-0.0713054,-0.0194369,0.00139108,8.97199e-05,0.00862467,0.0107443
-0.0597045,0.00935665,-0.0211901,-0.00870362,-0.0448146,0.0380428
-0.272938,-0.00333815,-0.0422049,-0.00800331,-0.00609493,0.00618052
-0.00413441,0.00188608,0.00684637,-0.0100809,0.0107169,0.0177941
0.219837,0.0252757,0.0406566,-0.00215259,-0.00421727,0.0024153
0.164204,0.0220476,0.00307319,0.00395945,-0.0099864,0.003416
0.00964778,0.00292307,-0.00486101,-0.00954741,-0.00117588,0.012039
0.0767833,0.0295747,-0.00584863,0.00297946,-0.00584054,-0.0120111
-0.14057,-0.0161829,4.37093e-05,-0.000293255,-8.27312e-05,-0.00744903
0.0876318,0.0200115,0.0273743,0.00153658,-0.000386357,0.0253503
0.0853425,-0.00246162,0.00293655,0.00258607,-0.00589275,-0.00790787
0.013984,0.0104172,0.00686079,-0.00108895,-0.0068053,-0.00192785
0.0107783,0.00507744,0.00581345,0.00209264,0.00375843,0.0130557
0.0182168,0.00292964,0.00265035,-0.00131069,-0.00490224,0.00563061
0.0662605,0.000785264,0.0188709,0.00517638,-0.00669962,-0.00244391
0.0535221,-0.00559984,0.0274131,0.00409077,-0.00271213,-0.00148481
0.185533,0.0967991,-0.000535946,0.00301391,-0.0119547,-0.00143111
0.00650768,0.000805637,0.00475747,0.000298813,-0.00267369,0.00800407
0.158866,0.0273887,0.000881864,-0.00908276,-0.000283539,0.010533
0.146158,0.0306251,0.0136352,-0.00426327,-0.00211799,0.00835633
0.091837,0.00824327,0.0189187,0.00168647,-0.00480622,-0.0042972
0.0747255,0.0103745,0.00815477,-0.000382379,-0.00218379,0.00284499
0.0118012,-0.00348028,-0.000537544,0.00123505,-0.00189275,0.00282657
0.00545713,0.00508258,0.00686346,0.00304778,-0.000929892,0.00498426
-0.00311514,-0.00133275,-0.000607224,0.00265461,-0.00096643,0.00476623
0.00115153,0.0072081,-0.000643404,0.00248419,-0.00680381,0.0066725
-0.00202017,0.00615051,0.00362376,-0.00163335,-0.00295413,0.00523233
-0.00205431,0.00186868,-0.00169142,0.0011369,-0.00300211,0.00595802
0.0107454,0.00293084,0.000486898,0.00196914,-0.00682676,0.00356704
0.00860793,0.00293071,-0.000589837,-0.00106217,-0.00284725,0.00136781
0.0182169,0.0029288,0.00161953,-0.00289857,-0.00086385,0.00662905
0.00222099,0.00293816,-0.000711936,0.00085327,-0.00373238,0.00530511
0.00222639,0.000803241,0.000298994,-0.000190839,-0.000769436,0.00369173
0.00223161,-0.00133071,0.00136463,-0.00124671,-0.00166488,0.0014118
0.00435125,0.000798757,-0.00079403,0.000678927,-0.000707388,0.00542414
-0.0020384,-0.00453453,0.000254275,0.0016095,-0.00554073,0.00560105
-0.00737774,-0.00239806,-0.00196344,0.0015817,-0.00352818,0.00324458
-0.00204261,-0.000263888,-0.000899151,-0.00303334,-0.00258482,0.00673288
0.00436185,-0.00347002,0.00128356,0.00189687,-0.00449318,0.00325131
7.61342e-05,0.000799334,-0.00303577,0.00294054,-0.0025416,0.00335652
0.00542995,0.00187068,0.00125179,0.00100632,-0.00448656,0.00426525
0.00114811,0.000800089,-0.00196265,9.29683e-05,-0.000583768,0.00240803
0.00220455,-0.00454332,-0.00299297,0.00505453,-0.00252247,0.00266653
0.00222739,0.00293998,0.000254367,0.00505383,-0.00539017,0.00294483
-0.00844318,-0.00239775,-0.0018532,0.00241202,-0.00256521,0.00703949
-0.0052514,0.000802708,-0.00293073,-0.00056909,-0.00547379,0.000841618
-0.00843061,-0.00239286,0.000281251,0.0024029,-0.00649714,-0.00056088
0.000109182,0.00294491,0.00241665,0.00164837,-0.00174189,0.00251162
0.00862182,0.0050706,0.000299074,-0.000190035,0.00208104,0.00280815
0.00540964,-0.000270945,-0.00181683,-0.00108071,0.00208646,0.000754178
0.00649445,-0.000266729,0.0014774,0.00190708,-0.0036943,0.0022912
0.00540216,-0.00240906,-0.00266255,0.00107226,-0.00753927,0.00460351
0.00755189,-0.0034734,0.00066511,0.0039116,-0.00261682,0.00141162
-0.010593,-0.0013331,-0.00469456,0.00398061,-0.00358689,0.00436759
-0.00843012,-0.00132445,0.000653737,0.00597076,-0.00261021,0.00256026
-0.0362723,-0.163687,-0.00801236,0.0182869,-0.00584257,0.0463443
-0.28904,-0.137933,-0.050795,-0.0216834,-0.00256747,-0.117693
-0.150891,-0.0601779,-0.119164,0.0372989,0.0555614,0.00668138
0.0705185,0.00505218,0.0169377,0.0129111,-0.0215377,-0.0172494
-0.0456666,-0.040798,0.0135931,-0.00711127,0.00578511,-0.00945109
-0.0861669,-0.0226136,0.0101175,0.0251579,0.00813764,-0.00194865
-0.0531211,0.00620298,0.0100542,0.00604177,0.00401694,-0.000533938
0.0182124,0.0200178,-0.000453815,0.00808115,-5.64456e-05,0.00558931
-0.00200927,0.0157676,0.00377192,0.00116876,-0.00191998,0.000472546
7.32797e-05,0.0210923,-0.00480287,0.00218013,0.000893533,0.000293553
-0.0554365,-0.0173459,-0.0186501,0.00891125,0.00650048,0.0236004
0.0384422,0.0146571,-0.00247841,0.0111066,-0.00880212,0.000276864
0.0193313,-0.00132915,0.0103753,0.00127469,-0.00100976,0.0136551
-0.0126719,0.000819974,0.00383091,0.0075665,0.000916302,0.000875115
-0.0137182,0.000826454,0.0070321,-0.00255968,0.00188637,0.00316155
-0.00418002,-0.0130808,-0.000320009,0.00578594,-0.00212801,0.00447547
-0.00520049,-0.0248141,0.00829747,-0.000570014,-0.00408018,0.00373429
8.71699e-05,-0.00240072,-0.000376221,0.00500999,-0.00218952,0.000671566
0.00649164,0.020026,-0.000496521,0.00471084,-0.00119257,-0.00180525
0.0107544,0.00827421,0.000664846,0.00469191,-0.0070526,0.0102645
-0.00737254,0.00828459,-0.00154113,0.00474727,-0.00699842,-0.0012632
-0.0084348,0.00187769,-0.000434259,0.00576961,-0.00700396,0.00381291
-0.0116326,-0.000255588,-0.000433917,0.00189909,-0.00115204,-0.000291288
-0.0330088,-0.0419116,-0.00772432,0.0109384,-0.00518554,0.0131032
-0.0169484,-0.0408345,0.00515334,0.0154753,-0.00518811,-0.0034976
0.0511741,0.0210406,-0.0120896,0.00215748,-0.00994313,0.00765294
0.00334759,-0.028017,0.0126225,0.0114338,-0.0147785,0.00364649
0.0298795,0.0146525,-0.00892151,0.00575815,-0.0041182,0.0044561
0.0032848,0.0125499,-0.00152992,0.00445886,0.000833273,0.000808537
0.0213914,0.0232142,-0.00366751,0.000902101,-0.00384378,-0.00205898
-0.0224593,-0.0109785,-0.0281836,0.00906724,-0.00583833,0.00885916
-0.103642,0.00611203,-0.0638576,0.00365365,-0.0164197,0.00158352
0.27071,0.10633,-0.0128898,-0.0129276,-0.00818604,-0.0107828
0.14191,0.0851033,0.0102724,0.00461623,-0.000360489,0.0136339
0.244627,0.0570698,-0.0938685,0.00368349,-0.00175905,-0.00308812
0.283572,0.0796408,0.00229137,0.00357167,-0.00143182,0.0045507
0.312327,0.0753433,0.00028877,0.00448389,0.00569361,0.0410943
0.470734,0.0783251,-0.0589718,0.0208611,-0.0224724,-0.0110892
-0.125485,-0.00119191,0.0258576,0.000902012,-0.0280502,-0.00168705
-0.0696933,-0.0385034,0.0936219,0.00667728,-0.03418,0.0306435
-0.293199,-0.216622,0.151634,0.0154929,-0.0505106,-0.086294
-0.487664,-0.118375,0.0519726,-0.0165099,-0.0218581,0.027824
-0.318391,0.0245727,0.015352,-0.000861496,0.0195831,-0.0151375
-0.155456,-0.0941282,0.0113889,0.00561744,0.00861835,0.0264133
-0.0819581,-0.0140879,0.000461761,-9.81241e-05,-0.0103744,-0.0219666
-0.0605794,0.0457265,0.006564,-0.000109777,-0.000282347,0.0121949
-0.0285857,0.0243495,0.0132337,0.00269961,-0.00334436,0.000967741
-0.00405501,0.0328822,0.0164758,0.0054771,-0.00147605,-0.00199777
0.0726395,0.0114582,0.0147624,0.00660595,0.00532597,0.00804543
0.0713514,0.0135298,-0.0226508,0.00492543,0.00941962,0.0141835
5.72009e-05,0.0274964,-0.00805094,0.0024406,-0.0045535,0.000575364
-0.0360302,0.00193167,0.0176225,0.00710982,-0.00766104,0.00273824
-0.0457983,-0.00986214,-0.0111846,0.00473559,-0.00577515,-0.00236773
0.120696,-0.00349883,0.0342713,0.00745061,0.0084852,0.0114471
-0.0639384,-0.0237411,-0.014367,0.00418743,0.000798464,0.00136763
-0.195961,-0.048177,0.00452936,0.0118112,-0.0162485,-0.00770569
-0.0787436,-0.0674857,0.00829651,0.0065458,-0.010904,-0.00117236
0.0436865,0.00181342,-0.0151991,0.00649193,0.00235981,0.0114155
0.0287404,0.00822427,-0.0206384,0.0031774,0.00071305,0.00444889
-0.0148765,-0.00560752,-0.00788984,0.00945324,-0.00418186,0.00401014
-0.0212678,-0.00132866,-0.00794426,0.00425442,-0.00507975,0.000207543
0.0609614,0.0200235,0.0210743,0.00481132,-0.00118053,0.00743353
0.00949454,-0.00886794,-0.0302185,0.00646296,-0.00684386,-0.000124514
-0.00618944,0.013659,0.017659,0.00665605,-0.00313532,0.00570399
-0.0201773,-0.00239016,-0.00365959,0.00572075,-0.00892466,-0.00092864
0.0203939,0.00614709,0.009259,0.00681393,-0.00220448,0.00591564
-0.0202171,-0.00560663,-0.0100481,0.00278115,-0.00405002,-0.00154179
0.0118286,0.000801687,0.00285014,0.00767113,-0.00798208,0.00247324
0.0778857,0.0146347,0.000871355,0.00779733,-0.0068807,-0.00180286
0.0715177,0.0135778,0.00513024,0.0100228,0.00268817,0.000646174
-0.0127525,-0.00667838,-0.00894509,0.000922441,-0.00116915,0.007514
-0.0265192,-0.00237116,0.00486564,0.00133842,-0.00599462,0.000892818
-0.0202294,-0.00454208,-0.0121921,0.00633335,-0.00420719,0.0068453
-0.00529007,0.000793208,-0.00896522,0.00642256,0.0044831,0.00727785
-0.015873,0.00509479,0.00271953,0.005385,-0.0041784,0.00184882
0.0332458,0.00936051,0.0199712,0.00619179,-0.00601774,-0.00220901
0.027792,-0.00028515,-0.000286112,0.00212471,0.00176817,0.00804365
-0.00422683,0.00933698,-0.010087,0.00719991,-0.00973785,-0.000131071
0.0628065,0.0487752,-0.0293215,0.00358036,0.000249386,0.0073241
0.0531331,0.022057,-0.0409372,0.00414969,0.013164,-0.00425071
0.0395623,0.00933335,0.00717369,0.0102899,0.00466448,0.00542545
0.0119614,-0.00236477,0.0253108,0.0031334,0.000844359,0.0059647
0.000189352,-0.00237045,0.0167182,0.0072417,-0.00688714,0.00181162
0.0266853,0.00718102,-0.00782008,0.00669934,0.000853717,0.00414813
0.0417849,0.0136312,0.0221112,0.0101927,0.00580025,0.00199717
0.0374451,0.0114751,0.00928868,-0.000332221,0.00292462,0.00516218
-0.0212885,-0.00453942,-0.0111276,0.00187336,-0.00101995,0.00606591
-0.0212626,-0.00346243,-0.00686357,0.00881138,-0.00769627,-0.000507236
0.0214488,0.0104152,0.00709876,0.0054083,-0.00187474,0.0027647
6.89356e-05,-0.000269259,-0.00359688,0.00601414,-0.00480902,0.00175911
0.0288339,0.00398061,-0.00458632,0.0107481,0.000956357,0.00257289
-0.00631043,0.00187578,-0.00149806,0.00697468,0.000116527,0.00228435
-0.0254787,-0.00131122,0.00058887,0.0031317,-0.00280011,0.00379908
-0.00413354,0.00402353,0.00597549,0.00470874,-0.00377136,0.00749815
-0.0446375,-0.0109028,0.00485236,0.00596009,-0.00476915,-0.00353956
0.0118334,-0.00240103,0.00393937,0.00768968,-0.00680315,0.00120771
0.00115993,-0.000262069,0.000679817,0.00635256,-4.27365e-05,0.00618088
-0.0147675,-0.00450706,0.0102658,0.00434272,-0.000178158,0.0063529
-0.0158901,-0.00345436,0.00063772,0.0109627,-0.0069657,-0.00413239
0.0299245,0.00291868,-0.000300702,0.00548616,-0.000174522,0.00657535
-0.0403568,0.000847759,0.00692938,0.00629285,-0.00312847,-0.00153559
0.0308559,0.0156949,-0.0238854,0.00528465,-0.00200683,0.00248027
-0.00316506,0.00185896,-0.0100348,0.00642218,-0.00385231,0.00127184
0.0746188,0.0146166,-0.0108936,0.00740951,0.0021624,0.00717288
0.0213588,0.00932083,-0.00785267,0.00810272,0.00152707,0.00309652
0.122491,0.0145585,-0.0235358,0.00803094,0.00277495,-0.000214398
0.0127941,0.00504321,-0.0142676,0.00910142,-0.00715607,-0.00142467
0.00324054,0.000788859,-0.00786518,0.00698368,-0.00215977,0.00192916
-0.0424611,0.00299298,0.0111819,0.00804074,-0.0098393,-0.0051747
0.0108505,-0.00344441,0.0178328,0.00653279,-0.00324506,0.000274837
-0.0381801,-0.00981975,0.0155519,0.00662075,-0.00443703,0.00100803
-0.00849055,-0.0194973,-0.00777909,0.00924163,-0.000707686,0.00131643
0.155746,0.0145992,0.0139835,0.00681922,-0.00310785,0.000682473
0.00649783,0.00721249,0.00172121,0.00821754,-0.00312406,0.00417948
-0.0105853,-0.0109412,-0.0024995,0.0127258,-0.00217617,0.000382483
0.0797657,-0.0270929,-0.0373166,0.014921,0.0149826,-0.00233352
-0.150228,-0.0503701,-0.00917909,0.00743271,-0.0186715,-0.0210711
-0.106525,-0.056807,-0.00576714,0.00834212,0.00147182,0.012311
-0.0786893,-0.00979561,0.0121961,0.00665638,-0.00379997,-0.00727117
0.00547793,0.00936366,0.00918059,0.00340323,0.00563002,0.00657743
-0.0212864,-0.00026633,-0.011156,0.00522763,-0.000270784,0.00483179
0.00965202,-0.000276716,-0.00463281,0.00968421,-0.00321281,0.0021894
-0.040311,0.00299764,0.0143938,0.00560585,-0.00132477,0.002635
-0.0617773,-0.00130341,-0.0113025,0.0123879,-0.00834435,-0.00299889
-0.068049,-0.0140797,0.0101259,0.00948516,-0.000880122,0.0053159
0.0331158,0.00505085,-0.00137112,0.00999166,-0.00465763,-0.00189179
-0.00414631,0.00401972,0.00383876,0.00413547,-0.00167477,0.00653464
0.00768523,0.00831588,0.0220178,0.00444673,-0.00168687,0.00388992
0.000958581,-0.0195454,-0.0312495,0.0112519,0.00395882,0.00683451
0.0279169,0.00722932,0.0199625,0.00724787,0.00020802,0.0076198
0.0118567,0.00615087,0.00708774,0.00868444,-0.00256705,0.000777602
-0.0222684,0.000827519,0.00272174,0.00762254,-0.00269645,0.00363195
-0.00527044,0.00186739,-0.00576762,0.00862721,-0.00267822,0.00032872
0.107723,0.0199535,0.000948302,0.00793727,0.00339061,0.00399119
0.0573724,0.0156413,-0.0440899,0.00887381,0.000907898,-0.00179279
0.0746002,0.00286262,-0.0129542,0.00714539,-0.00358868,0.0134459
0.0394769,-0.00777928,-0.00553885,0.009758,0.00807548,0.0125775
0.0150716,0.00401665,0.0103211,0.00987776,-0.00716519,-0.000178695
0.0332179,0.00508156,0.0157223,0.00866617,0.000676453,0.00182354
-0.00629446,-0.00452774,0.00174877,0.00528127,0.0015012,0.00234646
0.0278071,0.0050615,0.001812,0.00712427,0.00432664,0.00308228
-0.0700863,-0.0183231,0.026173,0.0068101,-0.0207482,-0.0074352
0.00625478,-0.0184903,-0.0365792,0.010785,-0.0283966,-0.00960314
0.0396133,0.00934928,0.0157192,0.0102028,-0.00544208,0.00923651
-0.0137665,-0.0184105,0.000742268,0.00774245,-0.00239408,-0.00151396
0.00661114,0.00404222,0.0209726,0.00483647,-0.00144333,0.000855029
0.0170656,-0.00136417,-0.0120758,0.00736873,-0.00240541,0.00287485
-0.00408346,0.00190202,0.0145371,0.0120324,-0.00542557,0.00367272
-0.00833928,0.00190752,0.0155886,0.00622886,-0.00247985,0.000411987
-0.0126623,-0.00451412,0.0059957,0.00738126,-0.00543231,0.000720143
-0.0340388,-0.00879062,-0.00473882,0.00834343,-0.00261897,-1.99676e-05
-0.0190868,-0.00345107,0.000623833,0.00976029,0.000161231,0.00329518
0.0682915,0.0189135,-0.000262181,0.00777672,0.00315112,0.00689852
0.0224375,-0.00242367,-0.00456893,0.0147177,-0.00335842,0.000312686
-0.027627,-0.00985806,-0.00150245,0.0101127,-0.00913692,-0.000631988
-0.0116206,-0.00131859,0.00170679,0.0083119,-0.00254309,0.00253421
0.0491365,0.0167985,0.00395446,0.00501704,0.000481904,0.00474149
0.00858981,0.00613258,-0.00467692,0.006901,-0.00031054,0.00316048
0.0585579,0.0252869,-0.0249141,0.0140051,0.00370383,0.00499976
0.154773,0.019967,0.0289036,0.000979796,0.0635625,-0.0252554
-0.0701652,-0.0226176,0.0133777,0.0152602,-0.0203444,-0.0169429
0.0204945,-0.00984346,0.0275253,0.00624493,-0.00618541,-0.000285268
-0.0517561,-0.0204092,0.0625814,0.00382358,0.00770807,-0.00437886
0.0149738,0.000785664,-0.00568831,0.0107462,-0.000394285,0.00408494
0.010675,0.00398181,-0.0121349,0.0111899,-0.00896603,-0.000473142
0.00854351,0.00291477,-0.012135,0.00784019,-0.0136808,0.000220418
0.0223772,0.00503545,-0.0153029,0.0105945,0.000994682,0.00545973
0.00644268,0.0125382,-0.00793288,0.0103016,-0.00164843,0.00263166
0.044837,0.0189276,-0.00248765,0.00847286,0.00916427,0.00504184
0.0150666,0.00722044,0.00922963,0.00756885,-0.00436074,0.000468135
0.139777,-0.0227671,0.01951,0.00798029,0.010123,0.0124593
-0.107646,-0.0514812,-0.0154236,0.0137008,-0.00439608,-0.00625366
0.0300112,0.0232374,0.0123877,0.0131714,-0.0100044,-0.00946647
-0.0159584,0.000798801,-0.0111449,0.00234081,-0.000419796,0.00638634
0.00753076,0.00613476,-0.00361141,0.0111466,-0.00811344,-0.00213468
0.0416229,0.00931208,-0.00457319,0.0105182,-0.00136584,0.00299937
-0.000982946,0.00187272,-0.00148008,0.00946343,-0.00331616,0.00284135
-0.0169386,0.00509617,0.0027143,0.00409938,-0.00138104,0.00381112
-0.0105998,-0.00133257,-0.00576815,0.00868121,-0.00604165,-0.00178587
0.0353049,0.00613422,0.00824609,0.0112488,-0.00128865,0.00449014
-0.00520088,0.000820861,0.00598989,0.00919028,0.00443178,0.00695956
0.0149813,0.00292356,-0.00463294,0.00900036,-0.00328302,0.00159335
-0.00852052,-0.0024167,-0.0143022,0.00933678,-0.00518245,-7.03335e-06
0.00859362,0.000793031,-0.00357289,0.00955418,-0.00132942,0.00360733
-0.0255314,-0.00453085,-0.00793775,0.0110033,-0.00519115,0.000514507
-0.00198608,-0.00131286,0.00922225,0.0112562,-0.00612962,0.000683367
0.0129068,0.000805282,0.00498963,0.00924154,-0.00317901,9.72152e-05
0.0245931,0.00826227,-0.0014248,0.00982578,0.00257593,0.00364316
0.00114767,0.000802441,-0.00146412,0.00795944,-0.000298977,0.00394422
-0.022269,-0.000240408,0.00272809,0.00714242,-0.00224936,0.00358683
0.0128823,0.00293399,0.000702416,0.0101296,-0.00602889,0.000220418
0.00435164,0.00293874,-0.000398478,0.00954825,-0.00505072,0.00117224
-0.0105673,-0.000254878,-0.000433156,0.0102863,-0.00602388,0.00117046
-0.0116341,-0.00238989,-0.000424539,0.0108763,-0.00416094,0.00246608
0.00857537,0.00292458,-0.00679374,0.00985044,-0.00511074,0.000734329
-0.0159147,-0.00132485,-0.00365121,0.00998259,-0.00702423,-0.000929236
0.00330528,0.00294513,0.00280291,0.0092196,-0.00508958,0.00177854
-0.0191396,-0.00667034,-0.00790355,0.00838619,-0.000275433,0.00299054
0.0139277,0.000790767,-0.00248417,0.0146498,-0.000309944,0.00244933
0.0192693,0.00292658,-0.000340459,0.0118524,0.00157315,0.00630659
-0.0254432,-0.00664012,0.00703235,0.0100962,-0.00420856,0.00567168
-0.0179888,-0.00237422,0.00596292,0.00824292,-0.006046,0.000865996
0.00965751,-0.00241213,-0.0035486,0.00927415,-0.00511795,0.00127244
0.0234406,0.000762272,-0.015272,0.00936119,0.000711381,0.00245714
0.00538953,-0.0013426,-0.00463996,0.0122702,-0.0040977,0.00121546
-0.00731227,0.00189642,0.00917998,0.0103631,-0.00409424,0.00316924
-0.0179622,-0.000230332,0.0102228,0.00843906,-0.00696701,-0.000589728
-0.00520248,-0.00238368,0.00601057,0.00844848,-0.00313336,-0.00029707
-0.0116425,-0.00666511,-0.00146407,0.0103153,-0.00123167,0.00237334
0.0118236,0.00400547,0.00175863,0.0102096,-0.00122255,0.00163209
0.00861384,0.00293514,-0.000381643,0.00949566,-0.00407612,0.000191927
0.00543749,0.00507952,0.00279791,0.00851567,-0.00215656,0.00185782
-0.00202876,0.00294726,0.00171447,0.00935507,-0.00316054,0.00249684
-0.012699,-0.00132103,-0.000435173,0.0102559,-0.00220042,0.00253379
8.26675e-05,0.00187148,-0.00147514,0.00749721,-0.0041008,0.00177199
-0.00205689,-0.0024017,-0.0025236,0.010398,-0.00223339,0.00479352
0.0138802,-0.00456276,-0.00992982,0.0122283,-0.00224006,0.00504839
-0.00526,-0.0024005,-0.00360548,0.00966045,0.000717342,0.00520068
-0.0104763,0.00297602,0.014504,0.00949106,-0.0031864,0.00195396
-0.0190804,-0.00344916,0.0016922,0.0110416,-0.0012939,0.00178498
-0.00530527,-0.00348174,-0.0110778,0.0118955,-0.0061599,0.000416815
0.00538311,-0.00134429,-0.0057088,0.0133748,-0.000244319,0.00172329
-0.0200665,0.00191462,0.0144759,0.0109132,-0.00212955,0.000937939
-0.0116201,-0.00025044,0.00169996,0.00914799,-0.00492978,-0.00080359
-0.00204159,0.00294376,-0.000422922,0.00912599,-0.00110543,0.00156856
-0.00736607,-0.00345942,0.000666825,0.0106486,-0.00310367,0.000213027
-0.00416675,0.0018788,0.000644948,0.0104478,0.000704408,0.00221688
7.56346e-05,0.000801997,-0.00253791,0.0106529,-0.00316024,0.00344902
-0.00419334,-0.000265265,-0.00361457,0.0106679,-0.00121069,0.00239825
0.0117293,-0.00569518,-0.0131373,0.0127766,-0.00312418,0.000723541
0.00112578,-0.00464319,-0.00463555,0.0127759,-0.00215,0.00190377
-0.00206407,-0.00358772,-0.00358809,0.0110253,-0.00404984,0.00109679
-0.0169622,-0.00356082,-0.000437208,0.0136139,-0.00606656,0.00352955
0.00542897,0.000698289,0.00175724,0.011628,-0.00118691,-0.000129223
-0.0010031,-0.000376252,-0.00467066,0.0130444,-0.00310427,-0.000164568
0.0043505,0.000696203,-0.000385486,0.0122059,-0.00213462,0.00277019
0.00112149,-0.000379315,-0.00573199,0.0103928,-0.00205159,0.00179249
0.00967975,0.00389679,-0.000386284,0.0121695,-0.00110322,0.00174046
-0.0116314,0.0028444,-0.000458875,0.0108915,-0.00113916,0.00139338
0.00324716,0.00175397,-0.00680707,0.0109401,-0.00498593,0.000842273
0.0064442,0.00282021,-0.00680296,0.011214,-0.00299591,0.00145304
0.0118359,0.00283401,0.00390342,0.0122936,-0.000111938,0.00308883
0.0096464,0.000681777,-0.00570544,0.00974093,-0.00104564,0.00394189
0.00646771,-0.00144551,-0.00250057,0.0109636,-5.19156e-05,0.00644648
9.53674e-05,0.0017691,0.000660833,0.0126118,-0.00488043,-7.21216e-06
0.00434213,-0.00357924,-0.00142454,0.0116261,0.000920177,-0.000426412
-0.0137778,-0.00249897,-0.00256859,0.0116852,-0.00196922,0.00186318
0.00648798,0.000696336,0.00069125,0.0110194,-0.0039044,0.0026021
6.29099e-05,0.000691409,-0.00467416,0.0119188,-0.0038709,0.00222844
0.0117885,-0.00251979,-0.00354165,0.0140401,-0.00196671,0.00279599
-0.00202873,0.00284054,0.00171485,0.0111893,0.00193924,0.00393581
-0.0255072,-0.00676487,-0.0036532,0.0130283,-0.00585908,0.00252008
-0.0202072,0.00176737,-0.00903093,0.0115135,-0.0155207,-0.00158417
0.0128316,0.00388112,-0.00785305,0.0140149,4.55976e-05,-0.00119692
0.0363079,0.00921392,-0.00245767,0.0126537,0.000200152,0.00265896
0.00749286,0.0070857,-0.0100301,0.0127923,-0.00539172,-2.70605e-05
0.00536981,0.0102936,-0.00899016,0.00936103,0.00444013,0.00242668
-0.0446505,-0.0110119,0.00271287,0.0131784,-0.00342649,0.00024128
0.00759251,0.00177429,0.00710041,0.0147311,-0.00455916,0.00330955
0.0299328,-0.00572854,0.00188914,0.0137396,0.00126481,0.00545931
-0.0212505,-0.0174495,-0.00356903,0.0125737,-0.00458509,-8.01682e-05
-0.0169312,-0.00568846,0.00492018,0.00916298,-0.00680149,0.0029406
-0.00310776,0.00177039,-0.000421229,0.0132184,-0.000979006,0.000940263
-0.0190868,-0.0163743,0.00177586,0.0123009,-0.00507402,-0.0028826
0.0235761,0.00283019,0.00715407,0.015074,-0.0052278,0.00222754
0.015939,0.00385134,-0.0227967,0.01152,-0.00226665,0.00447142
-0.0159956,-0.00999932,-0.0164173,0.0113734,-0.0010922,0.00424528
-0.0116723,-0.0153247,-0.00568251,0.0141689,0.00584751,0.00607312
-0.0190484,0.00926958,0.00588399,0.00989047,-0.0136235,0.00153738
-0.00418748,-0.00143814,-0.00253918,0.0135887,-0.00400662,0.000794232
0.000120367,0.000708542,0.00494122,0.0125399,-0.00404847,0.00525922
-0.00940811,-0.00460682,0.015625,0.0139332,-0.00698709,0.00121963
0.0182472,0.0135152,0.0059944,0.0115488,0.000635028,0.00547367
-0.00952103,-0.000367597,-0.00363502,0.0127385,0.000636756,0.00206763
-0.00620019,-0.00781087,0.0177964,0.0138766,0.0015958,0.0041675
-0.00411402,0.00499175,0.00917186,0.0130841,-0.00237978,0.00309014
-0.0222685,-0.0120952,0.00387262,0.0143522,-0.0102515,-0.00753337
0.0235136,0.00601689,-0.00355292,0.0108404,-0.00253898,0.00334841
0.0117891,-0.00145221,-0.00354725,0.0132102,-0.000587404,0.00642538
-0.00737625,0.00177159,-0.00150538,0.0102675,0.00131238,0.00541496
0.00748315,0.000675297,-0.0110584,0.0134711,-0.00151271,0.0019744
0.0426532,0.0156031,-0.0110224,0.0113061,-0.00316906,-0.00548285
-0.0149237,-0.00999825,-0.0153449,0.0162936,-0.00423253,0.000516772
0.00435541,-0.00250714,0.000705079,0.0122838,0.011143,0.0080446
-0.0190954,0.00498429,-0.00156867,0.0126469,0.000539482,0.00168651
-0.0201917,-0.00570453,-0.00577679,0.012088,0.00147861,0.00345719
0.0245686,-0.00253177,-0.00456104,0.0116575,-0.00131983,0.00378728
0.0182174,0.00496174,0.00177691,0.0133275,-0.0061115,-0.00063622
-0.00732665,-0.00141839,0.00706374,0.0129838,0.00155169,0.00297374
-0.00846288,-0.00250705,-0.00468478,0.0128428,0.00152713,0.000720918
-0.0127192,-0.00356996,-0.00362585,0.0157817,-0.00342351,0.00103712
0.00976457,0.0071249,0.0134844,0.0119252,0.00522864,0.00535208
0.00864146,0.00710923,0.00386364,0.0103145,-0.000608385,0.00443423
-0.00636482,-0.00465449,-0.010005,0.0131908,-0.00351816,0.000697494
0.0138965,0.00281284,-0.00784365,0.0140134,-0.00260323,0.00187266
-0.0339846,-0.00247234,0.0037657,0.00741023,-0.00169152,0.00994462
-0.0212162,-0.000351884,0.000596023,0.0176026,-0.00364232,-0.00815862
0.0693537,0.0123976,-0.000218067,0.0108311,-0.000804245,0.0030961
-0.0532859,-0.0163795,-0.0154454,0.00862059,-0.00179827,0.0121364
-0.0776942,-0.0227393,0.00159731,0.0184978,-0.00662798,-0.000145257
-0.0168727,-0.00353481,0.0145214,0.0158702,-0.00848395,-6.56843e-05
0.0097229,0.000705214,0.00711381,0.0135982,-0.0112324,-0.00420761
0.044805,0.00599563,-0.00667907,0.0127141,-0.00151652,-0.00210148
0.0480778,0.0177635,0.00501067,0.0100299,0.000327587,0.00701237
-0.0170798,-0.00893592,-0.0196336,0.01023,-0.00532204,-0.000109017
0.0160565,-0.00358971,-0.00244944,0.018195,-0.00625443,-0.00172043
0.00975608,0.00285012,0.012444,0.0116467,0.000544429,0.0046621
0.0118296,0.00283193,0.00283544,0.0128708,-0.00129712,0.00202882
0.0341635,0.00814387,-0.00459623,0.0112082,-0.000273347,0.00679117
-0.0105765,-0.00570382,-0.00146795,0.015829,-0.0012055,0.00107193
-0.00732715,-0.00248676,0.00707104,0.0138361,-0.00121391,0.00387257
-0.0223639,-0.0110545,-0.0121622,0.0158256,-0.00126052,0.00202441
-0.000962707,0.00390815,0.00171145,0.0147341,-0.000274181,-0.000589013
0.0107799,0.0092461,0.00492577,0.0136321,0.000743628,0.0063895
-0.041431,-0.00353143,0.00588205,0.0136852,-0.00798261,0.00020045
-0.0159297,-0.00570741,-0.00576148,0.0154107,-0.00605249,0.00156379
-0.00419338,-0.000371592,-0.00361504,0.0154126,-0.00313652,-0.000610888
-0.00954074,-0.00144138,-0.00683347,0.0139766,-0.00215125,-2.07424e-05
-0.0127059,-0.00249777,-0.00149642,0.0156986,-0.00315624,0.0029099
0.0171567,0.00176,0.00286176,0.0145461,-0.00313967,0.00240678
0.0076138,0.00605275,0.0102779,0.0107635,0.00346488,0.00992662
-0.0649366,-0.0163492,-0.00373841,0.0117213,0.00415301,0.00876355
-0.0202025,-0.00143508,-0.00794226,0.0150846,-0.00743353,-0.0018301
-0.0232674,0.00608151,0.0133674,0.0145364,-0.00366527,0.00177681
-0.0189605,0.00609101,0.0208634,0.0129962,-0.00760102,-0.00211024
-0.0361241,-0.00674609,0.00271847,0.0113946,-0.00391245,0.00398386
0.0181476,-0.00680668,-0.00883229,0.0147813,-0.00404984,0.00410682
0.0129383,-0.00036045,0.0103395,0.0135371,-0.00207609,-0.0022456
0.00958761,-0.00147028,-0.0153101,0.0118052,0.00265765,0.00804454
-0.0255812,-0.0142629,-0.0153575,0.0141446,0.00264126,0.00752318
-0.044568,-0.0120559,0.01661,0.0133768,-0.00316417,0.000783443
-0.000932338,0.000712848,0.00707462,0.0121939,-0.00715035,0.00863951
0.045607,0.00271315,-0.0504597,0.0179449,-0.00414145,0.00356108
0.0362877,0.0198883,-0.00680056,0.0125624,-0.0163764,-0.00862652
-0.0148615,-0.0131834,-0.00464112,0.016191,-0.00182366,-0.000690401
-0.0328584,-0.00886321,0.0144949,0.0125058,-0.00289088,0.00361937
0.00761097,-0.0249203,0.0126138,0.0167209,0.00961596,-0.00456852
0.0480873,0.0113584,0.00718828,0.016776,-0.00777107,-0.00232923
0.0331753,0.00923447,0.00821599,0.0137386,0.00761384,0.00715065
0.00979373,0.00179396,0.0188598,0.0142,-0.0010767,0.000530243
0.0034736,0.00715983,0.0305552,0.00780222,0.00466901,0.00634098
-0.00723807,-0.00352957,0.0220379,0.0191434,-0.00325847,0.00294334
0.0874449,0.00490102,-0.00330688,0.0189209,-0.00315559,0.00247693
0.0372063,-0.00578855,-0.0290675,0.0176051,-0.0026933,0.000488997
0.0066421,0.0146247,0.025178,0.0122627,0.00154108,0.00680947
-0.202387,-0.0621711,0.000318045,0.0201631,0.00481176,-0.0215907
-0.010592,-0.0238644,-0.00241993,0.00966561,0.0117567,0.017121
-0.0426903,-0.00786009,-0.0261464,0.0140107,-0.00755513,-0.00559324
-0.0894534,-0.0227419,-0.00485701,0.013392,-0.000821173,0.00211465
-0.0862201,-0.013121,0.000434387,0.011354,-0.000884116,0.00635231
0.0971098,0.014528,0.0084201,0.00548461,0.00511116,0.0100158
-0.0998771,-0.00664533,0.0323943,-0.00716884,-0.00060457,-0.00234479
-0.00469425,0.0168821,0.089227,0.0157669,0.00264359,0.00275165
-0.018919,-0.000304746,0.0283834,0.0130387,-0.00535846,0.00086391
-0.0171618,-0.0196402,-0.0323859,0.00998864,-0.00055325,-0.00198567
0.0268581,0.0210109,0.0198667,0.0176605,-0.00262189,0.00536871
0.0415101,0.000627759,-0.0226805,0.0178426,-0.00258636,0.00370705
0.0609266,0.0145676,0.0157646,0.0152997,-0.00450003,0.00733602
0.132049,0.0155041,-0.0288502,0.014228,-0.00233102,0.00242752
0.102331,0.0326495,-0.0109094,0.0137277,-0.00504732,0.00341517
-0.0811821,0.0081507,-0.0499005,0.0185765,-0.00962996,-0.00344735
0.150459,0.0711158,0.0157311,0.0179457,0.00201786,0.0061807
-0.081944,0.0274647,-0.000879883,0.0158539,-0.000769794,0.000741422
0.0246395,0.0241894,0.00488305,0.0171096,-0.00574005,-0.000847042
-0.0427128,-0.014274,-0.0293121,0.0155831,0.00129175,-0.00945437
0.353136,-0.0144132,0.0619193,0.0126949,-0.00906378,0.00239301
0.104501,-0.0186063,0.000114561,0.00393058,0.0137908,0.00686276
0.0169047,0.00916306,-0.0399257,0.0216877,-0.00082159,0.0154437
0.0168535,0.021965,-0.0496258,0.0117372,-0.0195254,-0.00510186
0.033147,0.0295196,0.00167224,0.0251942,0.00356692,-0.00511467
-0.0956159,-0.00878536,0.0324251,0.0190732,-0.0046137,0.00114065
-0.0880511,-0.0141005,0.0506522,0.00486131,-0.0156684,0.00357455
0.0168221,-0.015426,-0.0515194,0.0125998,-0.0108543,-0.0022763
0.0331208,0.00281151,-0.000292522,0.0083259,-0.0147753,0.010939
0.00649176,0.00817343,0.00064335,0.0166832,-0.010529,-0.0097627
-0.0252617,-0.00135279,0.0369131,0.0129,-0.00393611,0.000910521
-0.0276339,0.00178211,-0.00371621,0.0167826,-0.0040015,-0.000751674
-0.0123847,0.0136162,0.0507549,0.0120343,-0.0002231,0.00464153
0.00746356,-0.000399111,-0.0142555,0.0157771,-0.00307971,-0.00358355
-0.0359154,0.00186009,0.0368517,0.0116083,-0.00223017,0.000992835
0.00843892,-0.00149336,-0.0292048,0.0143077,0.000640631,0.00307488
-0.00522012,0.000709075,0.00278375,0.0104079,-0.0098654,-0.0142384
0.0320197,0.0081416,-0.00674085,0.0184517,-0.0060699,0.000726819
0.0075509,-0.0046457,0.000730435,0.0115761,0.00281668,0.00439441
0.060838,0.0166786,0.000790833,0.0176738,-0.00195527,0.00317228
0.0350704,-0.0154005,-0.0290136,0.0120039,-0.00362575,0.00535786
0.0813314,-0.0110335,0.0448544,0.0106344,0.0356587,0.0300434
-0.0498487,-0.00776617,0.0240417,0.0132743,-0.00777584,0.00305581
0.0674982,0.0263633,0.044561,0.0171059,-0.0165543,0.00187963
0.00855886,0.00815341,-0.0100337,0.0131746,-0.0011276,0.0041886
0.026756,0.00816371,0.00392492,0.0155418,0.0163171,0.0089317
0.142607,0.0240116,-0.0459606,0.0173946,-0.014987,-0.00229299
0.628056,-0.00179989,0.0639369,0.000738785,-0.00398749,-0.053005
0.408067,0.144542,-0.031857,0.0192401,0.0175196,0.0396591
0.70622,0.0598869,-0.0558354,0.0542645,-0.0398026,-0.139891
1.14989,0.0671499,0.0130897,0.0344169,-0.0126443,-0.00411987
1.46216,-0.00675741,0.0329007,0.048039,-0.00291061,0.0491737
0.902996,-0.054018,0.253351,-0.0442947,-0.0163006,0.0447762
0.1428,-0.0525192,0.171432,0.0115608,-0.0123557,-0.0224278
0.118647,-0.381353,0.260017,0.0982902,0.114356,-0.048959
-1.08657,-0.40322,0.0622571,0.20464,-0.00462288,0.116888
0.348216,0.136303,0.116483,0.0243466,0.00791854,0.0754057
-0.218952,-0.112526,-0.0923736,0.0847629,0.00133204,-0.00737214
0.0659135,-0.0627457,-0.212364,0.139541,-0.0252417,-0.0247449
0.849264,0.0905189,-0.192262,0.0197493,-0.00656897,0.0054872
0.566173,-0.0992808,-0.119436,-0.0530839,-0.0377681,0.0124764
0.32188,-0.121609,-0.16615,-0.0685651,-0.0470746,0.121579
-1.90494,0.223697,-0.360499,-0.142164,0.0638049,-0.0219432
1.32513,0.223852,-0.0962503,-0.163718,0.104866,-0.0738629
0.595023,0.322285,-0.321861,-0.024086,0.000978827,-0.000286996
0.184884,0.120761,-0.290039,-0.0252253,-0.0540208,-0.111578
-0.523554,-0.118354,0.108462,0.102731,-0.0192962,-0.074062
0.0813243,-0.127451,0.054155,0.23472,0.00488389,0.104342
-0.0798355,-0.119932,0.00862933,-0.0404347,0.00346786,-0.0121517
0.0819061,0.0136989,0.13872,-0.028082,-0.0290745,-0.00986248
-0.1835,-0.0334341,-0.0510822,0.0247807,-0.0294801,-0.00919551
0.145878,0.0966581,-0.0400097,0.0244315,0.0229264,0.00752854
-0.198323,0.0157358,-0.0397064,0.00440493,-0.00779986,-0.00468957
-0.695139,0.0174056,0.0898434,-0.0145924,0.0111486,-0.0120717
0.265552,0.0891899,0.0171149,0.0557205,-0.0129474,0.023535
0.0290541,-0.230273,-0.124871,0.0252953,0.0252095,0.0517219
0.269558,0.0228927,-0.0198344,0.014493,-0.0206991,-0.027163
-0.138851,-0.00893241,-0.0703068,0.0354064,-0.0166603,0.00454164
-0.212231,-0.0590332,-0.0424786,0.00229326,0.00243974,-0.00640559
-0.0200963,0.0701533,0.00334926,-0.00508952,0.0401453,0.0324093
-0.104596,0.103233,-0.0538115,0.0627644,0.0110923,0.0213484
0.193969,0.0141136,-0.186741,0.0132314,-0.00216126,0.0162789
0.54861,0.0992373,-0.22336,0.0075403,0.0309237,-0.00399733
0.372145,0.261831,-0.169514,0.00817505,-0.0197736,0.00980639
0.0951766,0.222543,-0.155339,0.0231399,-0.0232623,0.00824994
-0.191268,0.14164,-0.118491,0.00858922,-0.0275487,-0.0185935
-0.0211053,0.00791381,-0.159726,0.0187515,-0.0133577,0.0049336
0.430245,-0.11186,-0.0418678,0.0122727,0.0533248,0.0345048
-0.109585,-0.178626,0.0281302,0.0251809,-0.00607806,-0.0201995
-0.0108391,-0.083747,-0.0383591,-0.0159841,0.0456293,0.00708836
0.045993,0.110698,0.00439942,0.00405988,0.0238147,0.00935632
0.431955,-0.0358417,0.0591477,0.0594145,0.0620844,-0.0102711
0.903316,0.12061,-0.0651082,0.00448389,0.0234996,0.0236861
0.463245,0.0301543,-0.0597583,0.0576575,-0.0152903,0.00317276
0.267482,-0.0582598,-0.00329056,-6.4671e-05,-0.00762564,-0.00208074
0.279238,0.000483594,-0.00255832,0.0143718,-0.00223207,0.00483704
-0.346304,-0.0353822,-0.0142852,0.00590795,-0.049414,-0.0164426
-0.731697,0.00879306,0.0352696,-0.00155371,-0.0281051,-0.0269715
-0.624954,-0.109784,0.0781091,0.024684,-0.00940114,-0.010838
-0.746616,-0.172763,0.051349,0.0137404,0.00752598,-0.00113261
-0.308791,-0.0705918,0.0256165,0.0269517,0.020584,-0.0119964
-0.0573841,-0.0205996,0.0123442,0.00675124,0.00565922,0.0108094
-0.221408,0.0265366,0.0189044,0.019787,0.00208378,-0.0230172
-0.233456,0.0360626,-0.0367626,0.0142282,0.0105476,0.00150788
0.140491,0.0421756,-0.0450205,0.0143058,0.0178592,0.0150741
-0.0578519,-0.010055,-0.0667925,0.00679331,-0.0115505,0.00293583
0.00837563,-0.0132608,-0.0387437,0.0224268,-0.00185251,0.00430429
0.086078,-0.0485889,-0.0489065,0.00304684,0.00154406,0.00755739
0.116954,-0.0582314,-0.0519339,0.0182115,0.00125712,0.00424212
0.114109,0.00488784,0.00106826,0.0149822,0.00435871,-0.00443727
0.0769137,-0.028164,0.020374,0.0104359,0.00951815,0.0048629
0.0183314,-0.0227739,0.0233259,0.0133604,0.00793821,0.00519657
0.0173703,-0.031287,0.0415412,0.00903836,-0.0015471,0.00442499
0.0203697,-0.0420269,0.00956793,0.0225062,-0.00140262,-0.00124979
0.140548,0.00374281,-0.0319492,0.0160271,0.00728881,-0.00467288
-0.0563341,-0.000311804,0.00794199,0.0107104,0.000448048,0.00478119
0.0808025,-0.033617,-0.0415445,0.0185992,0.00441051,0.0106198
-0.0288587,-0.0356453,-0.0269832,0.00613818,-0.00598353,-0.00819612
-0.209844,-0.0194431,-0.00319284,0.0150657,0.00680888,0.0122629
-0.0127725,-0.0206737,-0.0109952,0.0127366,0.0152586,0.0133909
0.0948296,0.0102135,-0.0161338,0.0165926,0.0086593,0.0045923
0.12571,0.0347497,-0.0215202,0.0171062,0.000884414,0.00653791
0.00937984,-0.0592047,-0.0448536,0.0139301,0.0123675,0.00564086
-0.387046,-0.0949246,0.126985,0.0162509,0.000203669,0.00294739
-0.132895,-0.0311809,0.0367023,0.0144573,0.00733864,0.00939274
-0.0569134,0.0137157,0.0879817,0.0113274,-0.00223315,0.00176096
0.00887478,0.0392183,0.0399839,0.0128545,0.0203148,0.0262791
0.114775,0.0723684,0.10641,0.0108175,0.00132823,0.00547993
0.298889,0.0743017,0.0696903,0.00328046,0.0254351,0.0100803
0.0212718,-0.0111029,-0.0205445,0.0216358,-0.0102318,0.00578725
0.0501655,-0.00467841,-0.000180612,0.0140646,-0.00241417,-0.00800133
0.0342217,0.00922831,0.00501413,0.0102351,-0.00632608,0.00189328
0.128907,0.00911454,-0.0192054,0.0137427,0.0227109,-0.00113976
0.0372829,-0.0185825,-0.0150947,0.0159954,0.00719905,-0.00325859
0.0736228,0.0134642,0.000860208,0.0100228,-0.00528872,0.00231814
-0.0199542,-0.0419485,0.037197,0.0120832,-0.0166063,-0.00452745
0.0747251,0.01027,0.00729574,0.00798133,0.00620425,0.0050475
0.0914961,0.0689186,-0.0443077,0.00545785,0.0160686,0.00828719
-0.337864,-0.0247325,-0.0292814,0.0197672,-0.0029766,1.0252e-05
0.0637768,0.0123288,-0.0419076,0.0203291,0.021863,-0.00446171
-0.0892431,0.0531507,0.0234987,0.00268453,0.0199169,0.00950396
0.0232559,-0.0111473,-0.0451112,0.0301533,-0.012953,-0.00855696
0.178002,0.00482978,-0.0051051,0.0158785,-0.017421,-0.00305283
-0.0914103,-0.0451182,0.0262656,0.0158891,0.0165374,0.00771058
0.00830594,-0.02503,-0.0493512,0.0123558,0.00257099,-0.00397205
0.0851726,0.0550598,-0.0314214,0.012483,0.0116869,0.00256133
0.391722,0.123089,-0.0905463,0.0119581,0.0334834,0.0218625
0.367282,0.0654532,-0.0742381,0.0179806,-0.00893921,-0.000288248
0.38992,0.0655131,-0.030348,0.0131615,-0.0114051,0.00606275
0.401948,0.0538442,0.0221295,0.00829002,0.0111742,0.00572145
0.338137,0.028296,0.0444909,0.0137955,0.00562388,0.00429773
0.355747,0.0548355,-0.0421579,0.00916725,-0.0164337,-0.00718957
-0.426098,-0.0502407,0.00688344,0.0114085,0.0177544,0.00597471
-0.574005,-0.118425,0.0463037,0.0169553,-0.0155968,-0.00554574
-0.973456,-0.281498,0.0800532,0.0190771,-0.00628918,-0.0173232
-0.63467,-0.195257,0.0647369,0.0111683,0.00272185,-0.00280893
-0.311997,-0.0620473,0.0234117,0.0125443,0.016698,0.00449038
0.238525,0.0154024,-0.0412735,0.0113109,0.0235847,0.00196695
0.0694613,0.0615587,0.0133537,0.0104328,-0.0245368,-0.00309956
0.188437,0.0869949,-0.0494022,0.0134736,0.0128837,0.0117986
0.113807,0.00266423,-0.0491364,0.0186102,-0.00762695,-0.00575042
0.0457784,-0.0121889,-0.0204469,0.00827196,0.0139241,0.0107517
0.0639138,-0.00792423,-0.0172011,0.0131592,-0.00337481,-0.00410867
0.0202766,0.00173515,-0.00994758,0.0163826,0.00971091,0.000103593
-0.0190634,0.00499339,0.00377411,0.0143368,0.00618583,0.00227249
0.00223971,0.0156561,0.00164689,0.0138619,0.00685871,-0.00375456
0.00327979,0.00283073,-0.00147008,0.0118695,0.00136948,-0.000667095
0.0149893,0.00602337,-0.00358506,0.0123893,0.00228322,0.000442922
0.00329363,0.00497089,0.0006529,0.0145918,0.00600529,0.0025574
-0.0105335,0.00392178,0.00487907,0.0130963,0.00208408,0.00369281
0.00330739,0.00711149,0.00277493,0.0167709,0.00235742,-0.00151628
0.0087298,0.00499934,0.0188351,0.0119462,0.010611,0.00216234
0.00437037,0.0017691,0.00281487,0.0134436,0.00273919,0.0026257
0.0192915,0.00923536,0.00282214,0.0143511,0.00488341,0.000158489
0.0139573,-0.00357808,0.00288335,0.0159176,0.00839901,0.00282615
-0.00310653,-0.00891057,0.000718376,0.016912,0.00435817,0.000651419
0.0150006,-0.00999417,-0.000275345,0.0147606,0.00213826,-0.00568628
-0.166266,-0.071842,-0.0165789,0.00742263,-0.00556529,0.00916451
-0.160851,0.000806414,-0.00848266,0.0222392,-0.0041911,-0.0053038
0.386325,0.257334,-0.292305,0.0283211,0.012265,-0.00113279
0.00383606,0.00695392,-0.0869714,0.0216083,-0.0273813,-0.0201379
-0.261029,-0.0610702,-0.00631926,-0.0118728,0.0393608,0.0140309
0.372039,0.518576,-0.566508,0.0302246,0.0280669,0.0215418
0.161909,0.364426,-0.234006,0.0411257,0.000695527,-0.0121855
0.776809,0.333329,-0.0359758,0.0157901,0.0794919,0.00534642
0.663134,0.0472784,0.0455877,0.0333186,-0.070172,-0.0302755
0.0494684,-0.150894,0.0744923,-0.0150477,0.0479972,-0.0873042
0.315036,-0.109366,0.113681,-0.0651746,-0.135619,0.0458241
-0.00816488,0.130328,0.21135,-0.00815022,-0.0286343,0.0695593
-0.95028,0.0391288,0.184908,-0.0349806,0.0179081,-0.0262061
-0.572631,-0.123053,0.454487,-0.0153812,-0.0650465,-0.00797045
0.0418273,0.062533,0.559224,0.0755842,0.0616374,-0.00727928
0.376713,0.056721,0.434437,0.0433721,0.00675416,0.0403631
0.103291,-0.0557187,0.157415,0.0501739,0.225734,0.0176854
-0.0381049,-0.042704,0.209158,0.0236602,0.00310975,0.0228302
-0.147368,0.0138158,0.106877,0.073496,0.0133808,0.0674808
0.590408,-0.0339173,0.00737816,0.0145023,-0.0140411,0.0235278
1.01404,0.0724354,-0.0761298,0.0616201,0.00828379,0.0302563
0.837083,-0.150228,-0.425802,0.12772,-0.0208246,-0.00326538
-0.0226004,-0.248854,-0.386709,0.230149,-0.0989289,0.141351
-0.777824,-0.435257,0.201454,0.179695,-0.0689907,-0.00139737
-0.0190456,-0.58269,1.12839,0.0148192,-0.0262527,-0.0613952
0.616984,-0.806593,0.422774,-0.43372,0.830055,-0.335992
0.582074,0.244901,0.0140902,-0.251135,0.233566,0.0750316
1.59674,0.465441,-0.488917,0.0465472,-0.192974,-0.242599
-0.225453,0.0529908,-0.12552,0.0605222,0.0593498,0.160332
-0.0251946,-0.136977,0.0602357,0.0274402,-0.0610851,-0.027263
-0.0902629,-0.0354849,0.039033,0.0290174,0.00052771,0.00644845
-0.0138627,0.0829174,-0.0244878,0.0236045,0.00546286,0.00698888
-0.125151,0.185393,-0.11318,0.00298791,-0.00921869,-0.0344115
0.323418,0.212509,-0.29545,0.042659,0.00589424,0.0381596
-0.193959,-0.130251,0.168542,0.00219741,0.034043,-0.0319654
0.0586085,0.0546526,0.337104,0.0281298,-0.0199346,0.0645204
0.0816078,-0.0600854,0.0953961,-0.00653597,0.00309399,-0.0112411
-0.989336,-0.241007,0.627852,0.0174321,0.0412381,-0.0198155
-0.443121,0.0927612,0.532642,-0.00469545,-0.0274448,-0.00349933
0.0776106,0.342644,0.103457,-0.00200666,-0.0115145,-0.0602606
-0.535401,0.0642501,0.0709114,0.0297516,-0.0139371,0.0592368
-0.108155,-0.171806,0.266364,0.0588377,0.0189999,0.0559655
-0.31295,-0.472588,0.435291,-0.0632023,-0.00724226,-0.0411139
-0.0971198,-0.119992,-0.0309599,0.0337199,-0.00283593,-0.0139909
0.0933696,0.0763137,-0.0881462,0.0250644,-0.00323039,0.0416998
0.175317,0.349954,0.0492828,-0.122044,0.0363967,-0.0721857
0.232632,0.154705,0.207827,0.0422557,0.0414885,0.0463392
-0.130964,-0.0237691,0.00248009,0.0467403,-0.00951815,-0.00818229
-0.215291,-0.0458667,0.157232,0.00882503,-0.0281,-0.0168757
-0.0860825,-0.0333776,0.0251487,0.0361032,0.00151157,0.0211492
-0.123939,-0.0602144,-0.0667065,-0.00933661,0.00207913,-0.0180449
-0.132746,-0.127577,-0.107972,0.0599908,0.0104166,0.0018689
-0.409311,-0.151797,-0.0276474,-0.026554,0.044523,-0.00264049
-0.0983827,-0.0292661,-0.0721519,0.0299849,-7.84397e-05,0.00458622
-0.274316,-0.114924,-0.263508,0.00884116,-0.00180566,0.00704217
0.260203,0.0226533,-0.158759,0.0223067,0.0551922,0.0219207
0.255915,0.0226493,-0.163049,-0.00494294,-0.0112268,-0.0532573
0.554555,0.562315,-0.518017,-0.0275316,0.0287073,-0.0297675
1.00836,0.696825,-0.369744,-0.00189936,-0.115275,0.0712582
-1.73607,-0.84935,0.000756231,0.122434,0.0323033,0.0605617
-0.503647,0.0225096,0.0392496,-0.176279,0.0621997,0.00629473
0.276005,0.117956,-0.0193509,0.121589,-0.0168167,0.0276109
-0.305506,-0.0826326,-0.136689,0.205979,0.0589048,-0.00227284
0.431268,0.10035,-0.246236,0.201636,-0.0369875,-0.11315
1.8921,-0.136918,0.31316,0.127355,-0.0711434,-0.0740692
1.85453,0.00921854,0.7886,0.162012,-0.0681174,0.0630093
-0.901225,0.400453,1.58456,-0.0289891,-0.246415,0.222176
-1.39372,0.756593,2.22575,-0.144788,0.0880689,0.0680654
-2.02571,0.0469162,1.73116,-0.0857995,0.149432,0.166768
-0.556155,-0.968812,0.612828,-0.2661,0.0572879,0.0198175
-0.364946,-0.305429,0.0995909,-0.0859999,0.122017,-0.153533
-0.191189,0.0423322,-0.0964713,0.0160345,-0.0462016,-0.0337985
-0.0445233,-0.0298919,0.203712,0.0735133,-0.0883702,0.00125456
-0.328488,-0.0420287,0.470909,0.121021,-0.140319,0.0160401
-0.365927,0.0498081,0.43812,0.0108033,0.0300642,0.00458622
-0.0964542,0.185973,0.230966,0.0901538,-0.00797474,0.0250978
0.0260408,0.200199,-0.133009,0.110976,0.004592,0.0645539
0.0345583,0.173488,-0.131734,0.070316,-0.0478846,-0.0143359
0.0958293,0.209913,-0.0451968,-0.0246933,-0.0579478,0.00227392
0.0517425,0.202353,-0.111557,-0.0316637,0.0850007,-0.0211877
0.113298,0.137842,-0.324599,0.00348803,0.0525862,-0.0143946
0.0417469,0.177053,-0.533466,-0.142408,0.104367,-0.0370892
0.304444,0.20297,-0.260199,-0.0561247,-0.113895,-0.0505456
-0.206925,0.0242591,-0.0536742,-0.0886371,0.000717103,0.0602385
-0.30619,0.271,-0.104793,-0.032224,-0.0419847,0.136175
0.579527,0.394617,0.109274,0.0788855,0.0232831,0.0439445
0.250345,0.0698872,-0.0298193,0.0608045,-0.145057,-0.0171522
0.0626269,0.0592939,-0.0603704,0.0344208,0.0114568,0.0218567
0.267125,0.070865,-0.0746392,0.0466093,-0.0476946,0.00757802
0.181249,-0.0624503,0.00924527,0.0634057,0.0117708,0.0296257
0.454326,0.17209,-0.138699,0.075503,-0.0181798,0.0303698
0.187592,0.590236,-0.592227,-0.000676572,0.123318,0.185889
0.17647,0.359411,-0.649536,-0.0272228,0.0411938,-0.0168134
0.198748,0.0150129,-0.278606,0.0423583,-0.107791,-0.0932373
0.249491,-0.026485,-0.163822,0.03442,-0.118514,-0.0491852
0.0150098,-0.01854,0.00192562,-0.0226155,-0.0762959,-0.0261999
-0.059524,0.0114365,0.00786288,-0.0294805,0.0699019,0.0187362
-0.114922,-0.0333769,0.0132886,0.0230715,-0.0317198,0.0116192
-0.151194,-0.0568586,0.00796115,0.00424823,-0.0096668,-0.00128359
0.0438154,0.0540755,0.00156273,0.00516656,0.0266472,0.0090766
-1.16112,0.495507,-0.369082,0.0646041,-0.0860913,-0.0966203
1.04073,0.558388,-0.110163,0.201009,-0.064607,-0.0769227
-0.0573146,-0.635906,0.613603,0.0597686,-0.102836,-0.0429039
-1.6678,-1.54997,1.32402,0.0386466,0.0504819,0.18954
-1.73997,-0.495231,0.920517,-0.155106,0.18849,0.248807
4.20144,2.38901,-0.740583,-0.234472,0.102962,-0.0770563
2.37055,2.99417,-1.20973,-0.163584,-0.269464,-0.0703284
-0.449652,1.34504,-0.493733,-0.0513331,0.0851098,0.157464
-0.615547,1.12374,-0.063403,0.072531,0.102076,0.0942543
-1.00548,0.269301,-0.15762,0.0643779,-0.0736772,-0.104203
-0.20573,1.25009,-0.320184,0.06388,0.115802,-0.00022608
-0.603882,0.774017,0.315003,0.0215019,0.064427,0.204157
-0.813364,0.0762909,1.33911,0.0197061,0.166992,-0.0349472
0.609806,0.443766,1.96069,0.13919,0.10423,-0.190519
-4.15683,-1.50265,0.427581,0.547888,0.0204023,-0.0109577
-4.42021,-0.354634,-2.91441,-0.0318304,-0.44279,-0.476294
-0.239706,-0.5041,-2.28022,0.26153,-0.29448,-0.0933796
0.766378,-2.30083,0.594362,-0.133386,-0.471898,-0.0149511
-0.832073,-2.07993,1.61159,-0.166885,-0.44847,0.18684
-4.57408,-2.09355,1.97803,0.168256,-0.0313201,0.479586
0.087627,0.0338183,0.0252995,0.114024,0.153114,0.10298
-0.477933,-0.218056,-0.0927159,-0.292583,0.111591,0.179017
-0.431719,-0.30373,-0.196695,-0.0438492,-0.104718,-0.00333011
-0.16656,-0.074035,-0.0647041,0.0274687,0.171906,-0.0139859
0.298672,-0.132934,0.052814,0.0489997,0.0773552,-0.000943065
0.11424,-0.050895,-0.149278,0.11903,0.0262423,0.0486782
-0.163918,-0.356027,-0.666541,0.145752,-0.21374,0.209828
-0.856512,0.507511,0.500562,-0.0696404,-0.241646,0.202417
-0.99012,-0.462912,0.161245,-0.276763,-0.304769,0.116342
0.181585,0.109635,0.0508007,0.052413,0.246414,-0.043465
-0.147376,-0.15522,-0.0566257,0.0192163,0.0445261,0.00739217
-0.302322,-0.228615,0.0533182,-0.0274475,0.0059185,0.00542146
0.0066748,-0.0248544,0.0349918,0.0318885,0.0211766,0.00236082
-0.0830825,-0.0569009,-0.00467158,0.00544375,0.0214336,0.0207765
-0.202314,-0.109115,0.0176603,-0.0377304,0.0360603,0.0299248
0.294732,0.182992,-0.0999027,0.00930375,0.105974,-0.158899
1.04348,0.606661,-0.0100961,-0.0251758,0.168584,0.0595602
2.5488,1.10298,-0.807946,-0.111821,0.109819,0.0476621
-0.924106,0.263869,-0.802688,0.00870606,0.0724265,0.11503
0.682542,0.211347,-0.820904,0.0450779,0.340232,-0.0560685
1.24033,0.511644,-1.11566,-0.0227439,-0.000333637,-0.00410777
-0.160877,0.255021,-0.0347633,0.0435824,-0.215046,0.0132127
0.489117,0.307942,-0.0337431,0.0260256,0.12578,0.0581852
-0.738722,0.120029,0.0985728,0.0639666,-0.266129,0.177594
-1.10465,-0.19352,0.228518,0.0626386,-0.00986221,-0.0570517
-1.96696,-1.27244,0.450248,0.114851,-0.0582789,0.00297725
-0.587515,-1.16296,0.7325,-0.0734555,0.0553271,0.0287192
-0.407778,-0.0776215,0.222895,-0.0184166,0.0851392,-0.0240998
0.0165849,-0.135087,-0.0796496,-0.00735347,0.0890433,0.0178695
-1.44435,-0.744804,-0.580132,0.0227222,0.026615,-0.184162
0.936468,0.836991,-0.286582,-0.200327,0.129234,0.393167
1.3501,2.31722,0.329343,-0.331684,0.0433245,0.130526
-2.71512,0.521627,0.437951,0.508005,-0.427909,-0.367172
0.265856,0.276971,-0.126264,0.158423,0.248247,0.25472
1.76214,-0.205755,-0.0309883,-0.0188642,0.0285509,0.0435174
0.566942,0.0155642,0.177861,-0.0490923,-0.000228465,-0.0792052
0.353925,0.364688,-0.0175219,-0.0841938,-0.0344794,-0.000848949
0.314774,0.304363,-0.322852,0.0394543,0.00354719,-0.0129992
0.318192,0.386977,-0.115029,0.0483226,-0.0092653,0.0528748
0.152112,0.0966364,-0.0656885,0.0101287,0.0597441,-0.00410956
0.0127336,0.0832277,0.147567,-0.0111455,-0.0647652,0.0637124
-0.383009,-0.119974,0.448706,0.101087,-0.0232022,0.0350481
-0.576892,-0.113096,0.632778,0.0485345,0.0258809,-0.00109524
-0.193031,-0.222556,0.510982,0.0131541,0.11094,-0.0138772
0.0991607,-0.117282,0.36395,-0.0683472,0.157496,-0.0320548
0.166707,0.116824,-0.121323,0.00528252,-0.0699856,-0.00472218
-0.220697,-0.124132,-0.026119,0.0126129,0.0442754,0.0187958
-0.892814,-0.302546,-0.329849,0.0880122,-0.00632855,-0.175466
0.290096,0.0838711,0.0246617,-0.0743641,0.0734837,0.0496662
-0.0595858,0.191195,0.160484,-0.00112873,0.0476063,0.137107
0.706951,0.527619,-0.152948,0.0416964,-0.0495564,0.0711405
-0.286697,-0.26322,-0.181458,0.0311996,-0.0356884,-0.112935
-0.00838701,-0.297545,-0.142799,0.0028969,0.0417877,0.0459564
-0.331735,-0.0835274,-0.0674006,-0.0265446,-0.0495028,-0.000783682
0.54745,0.0322643,-0.0541731,0.0143899,0.0911874,-0.0324563
-0.369021,0.0153851,0.281202,-0.0483367,0.0652278,-0.0627971
-0.925914,0.0882288,0.15791,0.0121891,-0.0161973,0.0555596
-0.20734,0.00739388,0.0574855,0.021332,0.0275165,0.105509
1.90539,-0.0169934,-0.147069,0.062072,-0.168447,0.167065
-0.108054,-0.283442,-0.062061,0.0124295,0.0125619,-0.108357
0.235997,0.156922,0.236604,-0.0440741,0.206863,-0.0301599
-0.0887644,0.199952,0.269301,0.0352157,-0.0387004,0.0419303
0.196618,0.0220802,0.0781329,-0.0151872,0.0202765,0.0301339
0.156877,0.00172432,0.0268313,0.00896609,0.0203128,0.0469096
0.0709384,-0.0347277,-0.0865102,0.0286698,0.00724497,0.0110247
-0.222204,-0.0612446,-0.105599,-0.00624186,-0.00950786,0.0250598
-0.0879443,-0.131836,-0.0982264,0.0325837,-0.0292851,0.0141554
-0.36356,-0.0724699,0.133276,-0.0303433,0.0242414,-0.0055027
-0.44131,-0.0702662,0.138314,0.00621963,0.0167441,0.0301807
-0.102359,-0.183254,-0.187699,0.0157858,0.0375866,0.00757498
-0.293759,-0.0441498,-0.134827,-0.0238826,0.0206964,-0.00266075
-0.00162732,0.00160754,-0.108386,0.0418389,0.0053485,0.0146207
-0.136829,-0.101855,-0.079374,-0.00521892,0.0268614,0.0293104
-0.0399523,-0.0610552,0.0809901,-0.0134524,0.0144189,0.0151176
0.0670434,-0.0549106,-0.0233545,0.014369,0.0112968,0.0131854
-0.016343,-0.0805608,-0.0673081,0.00444108,0.00981832,0.01595
-0.1737,-0.0109208,-0.0170626,-0.00643992,-0.0264116,0.0119021
0.104775,0.0156803,0.0436397,0.000438929,0.0256235,0.00930631
0.108903,-0.0473766,0.0269698,0.0123994,0.0249608,0.0241941
0.133922,-0.0678491,-0.0636235,0.00285041,0.0135528,0.00703025
0.0706719,0.0295879,0.0412867,-0.000100434,0.00966024,0.00960296
0.0855562,0.065881,0.0325582,0.00409842,0.00590801,0.0132688
0.0119776,0.00290529,0.0284171,0.0087145,0.00218999,0.0162399
0.0129825,0.00929457,0.0176959,0.00250047,0.0109921,0.00413954
-0.00832125,0.0360139,0.0163737,0.00325918,-0.00272441,0.00907695
-0.0656745,0.0361106,0.0471445,-0.0130339,0.00545537,0.00482965
-0.0115797,0.0402707,0.00564876,0.0202588,0.0133316,0.0155185
-0.00209049,-0.00782804,-0.00682417,0.0068146,0.00309676,0.0103298
-0.0233483,0.00822376,0.000471577,0.00167298,0.00877231,0.00503027
-0.0457087,0.027471,0.00132904,0.000804305,0.00770593,0.00766963
-0.0340112,0.0189104,-0.00177539,0.00765228,0.000716388,0.0101656
0.00532457,0.00710608,-0.0154406,0.0142069,0.012351,0.0053398
0.0031573,0.0113692,-0.0218869,-0.0121755,-0.00843918,0.00158489
0.0183287,-0.00458782,0.0220783,0.00817883,0.0256585,0.00958449
0.0918746,-0.234576,-0.131079,0.01182,-0.000180602,0.019233
-1.82523,-0.712483,-1.20041,0.135357,0.0227003,-0.0547694
-2.72166,-0.663577,-2.33022,0.129079,0.4477,-0.107312
-0.507993,0.208226,-3.73153,-0.00560367,0.271249,0.0514836
2.24383,0.301535,-4.15989,0.188284,0.219754,-0.059701
-0.526489,0.0949165,-3.78535,0.149157,-0.27065,0.272385
-1.96138,0.980171,-2.7387,0.219298,-0.0202797,0.168338
-3.22379,0.947369,-1.2741,0.457238,-0.211122,0.0136206
-0.626316,-0.622053,-0.280841,0.186646,0.149317,-0.205282
-0.742944,-0.573735,-0.188634,0.0273834,-0.167048,-0.191232
1.15811,-0.233343,-0.186931,-0.00329494,-0.030322,0.177165
4.98016,-0.360684,0.726771,0.264206,0.201868,-0.315674
5.58303,1.75583,1.21427,-0.0742037,0.0548457,0.493146
1.77119,2.53925,-0.188723,-0.141828,0.165298,0.182329
2.93534,1.96671,0.321517,-0.157752,-0.361721,-0.256723
1.33004,1.90307,1.10978,0.0902468,-0.302702,-0.162123
0.527679,1.79673,1.6481,0.218933,-0.0787467,-0.129561
0.471929,0.72632,0.974229,0.0972331,0.426284,-0.245887
-0.371286,0.399843,0.224207,-0.188972,0.663775,-0.00918376
0.23593,-1.02181,-1.27188,-0.0116428,0.131607,-0.466634
-0.120658,-0.523419,-1.07879,-0.0582054,0.021599,-0.0227491
-0.115829,-0.846118,-1.1333,0.00985491,0.0532307,0.0023427
-1.0509,-1.02502,-1.22112,-0.00239035,0.12287,0.0604874
-1.05021,-0.704497,0.647657,0.378051,-0.72305,0.0257243
-3.21625,-0.0479333,1.32337,0.575098,-0.511732,0.286889
0.0646984,0.922109,3.41604,-0.243846,-0.519856,0.289362
2.47006,2.47061,3.00686,-0.441508,0.634671,-0.237031
0.783999,1.95598,1.19928,0.318231,0.258541,-0.059738
0.858416,0.0522764,-0.0830592,0.0618227,0.11843,-0.175357
-4.69358,-0.200637,0.713018,-0.182356,-0.816079,0.192966
-8.04796,-2.06891,0.497814,0.370507,0.528844,0.011631
-1.04439,-1.35769,0.966038,0.109853,0.0200486,-0.118076
5.2537,-0.241355,0.667187,0.177914,0.246438,0.168088
7.94063,1.58288,0.457073,0.209842,0.108741,0.500868
-2.53716,0.700443,-0.464317,0.177818,-0.0534974,0.244269
-3.26132,-1.41882,-0.744974,0.0740576,-0.641062,-0.610167
-1.46516,-1.03177,0.241148,-0.147818,0.0877319,0.130417
-0.449577,-0.296608,0.201718,-0.241991,0.100022,-0.238453
1.63504,0.829182,-0.174938,-0.0158106,-0.0330096,-0.120147
2.55662,1.51503,-0.963381,-0.113124,0.0412317,0.0125716
0.794324,1.20087,-0.569414,-0.127346,-0.0460491,0.0716491
-0.796251,0.240009,0.267458,-0.00142062,0.0237695,0.0621308
-1.11948,-0.361475,0.079965,0.253084,0.0462131,0.0408787
-0.614311,-0.0231204,-0.465248,0.00525415,-0.199833,-0.0377584
0.132246,-0.113951,-0.16163,-0.0959136,0.166195,0.00348955
1.10127,0.689377,-0.332024,0.000800371,-0.0248677,-0.131341
1.02889,0.649177,-0.138645,0.0217776,0.0663999,-0.0373133
-0.262389,-0.151908,-0.0463987,0.127254,0.0335994,0.194978
-0.847206,-0.738087,-0.14736,0.0688998,-0.0250517,0.0624088
0.0037896,0.0528966,-0.0980159,-0.0996569,0.0640552,-0.0902301
0.0141884,0.0862347,0.0342943,0.0646819,-0.0923461,0.0617473
-0.0437046,0.102506,0.151502,-0.0249405,-0.0110905,0.0413926
-0.15306,0.0343486,0.223122,0.0144532,0.0176047,0.058125
-0.415137,0.00678916,0.231934,0.0102932,-0.0433672,-0.0684699
0.177923,0.0457331,0.156974,0.012772,-0.0966054,-0.125324
-0.809303,-0.279125,0.269706,0.0274508,0.0712066,0.124858
0.136049,-0.00238956,0.107979,-0.0273374,0.144392,0.0380972
0.816242,0.492159,-0.226036,0.0135484,0.0282634,-0.12571
0.363582,0.276499,-0.354545,-0.0310862,-0.0311732,-0.0734885
-0.397399,0.192193,-0.0256296,-0.145321,-0.0745956,-0.000671268
-1.85322,-0.499649,0.158246,0.183183,-0.054313,0.223575
0.872561,-0.666617,-0.682017,0.0934114,0.139279,-0.125377
0.251077,-0.171864,-0.240942,-0.0937582,0.0380238,-0.0333847
0.699744,0.151438,-0.255248,-0.0333607,0.0422086,0.0110881
0.22076,0.0394894,-0.340723,-0.000471413,0.0459885,0.0319653
0.181296,0.0128072,-0.344972,-0.00189161,-0.0842378,0.0142151
0.0672953,-0.0327185,-0.16133,0.0593933,-0.0228522,0.0171868
0.0285079,-0.0653004,0.126148,0.0518258,0.0122525,0.019806
-0.196254,-0.191142,0.147492,-0.034574,-0.11839,0.0477223
-0.706777,-0.103976,0.293531,9.62019e-05,-0.0510032,0.0207596
-1.09397,0.0519962,0.744089,0.0879023,0.162783,-0.0263882
-0.326961,-0.191697,0.384201,0.0348033,-0.0693882,0.0605627
-0.383715,-0.167038,-0.199545,0.0415984,0.0801447,-0.0360523
0.249515,0.29962,-0.0100135,-0.178177,0.0937342,-0.0233808
0.402763,0.267409,-0.03808,0.0656908,0.0748102,0.00900185
0.28853,-0.168953,-0.392538,0.0355732,-0.0411611,0.00569469
0.424986,0.0523598,-0.222511,-0.0334986,0.0429686,-0.0304608
0.434065,0.216994,-0.144481,-0.0158531,-0.00426719,-0.00415981
0.0420173,0.0877638,-0.301105,0.133178,-0.14691,-0.0243586
0.360152,-0.0543471,-0.185736,-0.0069865,0.0602491,-0.00165737
0.386016,-0.00942394,-0.141055,-0.00782722,0.00186929,0.004107
-0.0224604,-0.0398894,-0.0248584,0.00612998,-0.0345117,0.0914878
-0.105838,0.075755,0.0980196,0.0192623,-0.0500782,0.0258163
-0.480835,-0.0165514,0.294878,0.0182438,-0.0367083,-0.000712156
-0.299072,0.00454443,0.21956,-0.0111027,-0.0311784,0.0264549
-0.433464,0.114925,0.364719,-0.0100565,-0.00263339,0.00078094
-0.398296,0.062566,0.370533,0.0220804,0.0128109,-0.00257504
-0.104842,-0.049226,0.0977645,-0.0093891,-0.0131677,0.0103424
-0.0981612,-0.110336,-0.0268237,-0.0119638,0.1063,-0.0702311
-0.023087,-0.00162141,-0.133025,0.0129113,0.0105775,0.0301549
0.0437684,-0.10108,-0.169523,-0.00457007,-0.0248344,-0.0223336
0.206801,-0.0253702,-0.174745,0.00478649,-0.0457762,0.0707819
0.129109,-0.0455771,-0.157811,-0.0058319,0.0182865,-0.0380664
-0.0019863,0.0990074,0.00102871,0.00198388,-0.0042001,0.0378645
0.0590056,-0.0398076,0.0566466,0.0125366,-0.0467547,-0.0128784
-0.0226468,-0.0193381,0.120314,0.0103584,0.00830144,-0.00937831
-0.0836072,0.00306992,0.0804092,-0.00447142,0.0113496,0.00345004
-0.0805293,0.0211891,0.0589351,0.00414866,-0.0082987,0.00680572
-0.0633506,0.0137393,0.0814828,0.0141207,0.00433165,-0.00538516
-0.0728134,-0.0268027,0.106286,0.0285093,-0.00400022,0.00325418
-0.0705965,-0.0598889,0.123605,-0.0104789,-0.0211316,-0.00226533
-0.126352,-0.0385875,0.063424,-0.0334547,0.0312284,0.00465065
-0.0615564,0.016842,0.0248447,0.0144247,-0.00506103,-0.00178337
0.00949479,-0.0100109,-0.0292072,0.00120181,0.00730741,-0.0033946
0.00948774,-0.0238968,-0.0291186,0.00227749,-0.000452816,0.00570285
-0.0490813,-0.0687001,-0.0194314,0.0164538,-0.0135285,0.0190507
-0.0308121,-0.00138302,0.000502983,-0.00640845,0.00225541,-0.00426179
-0.0339118,0.000784043,0.0165034,0.00401336,0.00351784,0.00372797
0.0212108,-0.0324499,-0.0279494,0.00913507,0.0022527,9.36985e-05
0.0020846,-0.0537811,-0.0171975,0.00815547,0.00338989,0.0108019
-0.00415893,-0.00994295,0.00386363,-0.0028134,0.00379467,-0.00734699
-0.0213295,-0.0366663,-0.014192,0.00572628,-0.00130633,-0.00254148
0.00413399,-0.0377849,-0.0322538,0.0186798,-0.00222868,0.00562471
-0.0448922,-0.0868812,-0.0299825,0.00369209,-0.00795257,0.00381273
0.00010086,-0.00140139,0.00275347,0.00234824,0.00879276,0.000941217
-0.00623576,0.0477491,0.00775452,-0.00263363,0.00520384,-0.00259566
0.00347716,0.0253484,0.0303747,0.00623435,0.000602514,-0.0206771
0.00516435,-0.0570206,-0.0363992,0.0119914,-0.0073449,0.0190238
-0.0289064,-0.0559202,-0.0322583,0.00166577,-0.00841659,-0.00342679
-0.0147974,0.0242484,0.00359973,-0.00490618,0.00400859,-0.00197762
0.0264362,0.0187821,-0.049631,0.00867039,0.0319359,-0.00679684
0.013784,0.00601494,-0.0260908,0.0273843,-0.0342749,0.0130016
0.0303533,0.0029701,0.0722877,-0.00242209,0.00462839,0.00853091
0.0243422,0.11523,0.12603,-0.0214943,0.011397,-0.0102345
0.0247605,0.0733867,0.0215945,0.0126601,0.00114965,-0.00249994
0.0352868,0.0840222,-0.000874023,0.0074212,-0.00175002,0.00173837
0.00573376,0.0980109,0.0448685,0.011017,-0.00730816,0.00643659
-0.0136364,0.0360233,0.0184871,0.0032717,-0.000372529,0.0111182
-0.00102181,-0.0259813,-0.0045722,0.00552344,0.00606123,0.00455707
-0.0651985,-0.0815439,-0.0407773,0.00219566,-0.00280294,-0.00238055
-0.0489679,-0.00778845,-0.005937,0.00114071,-0.0133931,-0.011469
0.024811,0.0723341,0.0301474,0.00161171,0.0127455,-0.00174868
0.0362313,-0.0302935,-0.0108148,0.0120968,0.00979158,0.011063
0.00856552,-0.0185142,-0.00565071,0.00422478,-0.000996441,-0.00485313
-0.299765,0.0147115,-0.0754015,0.021886,-0.0389671,-0.0398805
-2.24831,-1.30752,-0.801737,0.373856,-0.0445831,-0.162544
-1.46423,-1.65331,-1.50708,0.167067,0.188077,-0.00154245
-0.531981,-1.34493,-1.90198,-0.0249888,-0.00237793,0.177148
-1.25337,-1.07343,-2.11159,-0.0182583,-0.0843728,0.183813
-1.2975,-0.208857,-1.90687,-0.067918,0.0122957,0.21185
0.0505787,0.869217,-1.79022,-0.142258,-0.0200109,0.142812
0.288213,1.23814,-1.46264,0.123088,-0.0769832,0.0580502
0.217227,1.15091,-0.674891,0.108783,0.128253,-0.00787944
0.311661,0.903118,-0.00621958,0.0302624,0.0626064,0.197353
1.51256,0.758803,-0.158917,-0.0427414,0.0555598,0.0384487
0.667861,0.309247,-0.433757,0.00691527,-0.0520701,-0.044681
-0.127151,0.222405,0.262594,0.031327,-0.0812326,-0.0197945
-0.499837,0.2908,0.118654,-0.00826889,-0.0873353,0.0460787
-0.186834,0.0359837,-0.0793912,0.0350406,0.111556,-0.0429487
0.0821384,0.318635,-0.205225,-0.0204136,0.0317469,-0.00766158
0.743241,0.0915414,-0.28141,0.0261616,-0.141161,-0.079735
0.327589,-0.22645,-0.270222,-0.0210568,-0.0834058,0.0128506
-0.359389,-1.10013,-0.502188,0.00564599,0.0357801,0.0634074
1.12189,-0.616248,0.739622,0.250697,-0.207513,-0.138972
4.42655,0.590335,2.49856,0.317585,-0.187169,0.0743322
-0.189571,1.80034,3.40191,0.263918,-0.0791297,0.142289
-0.766844,1.40278,3.65449,0.0266539,0.25107,-0.031096
0.272067,1.75762,2.38249,0.078515,0.287315,-0.0236371
2.22388,1.20093,0.0844848,0.232843,1.27774,-0.504703
-0.0455381,0.383179,-0.0020488,-0.0834125,-0.18316,0.120409
-0.238787,0.0403705,-0.036877,0.0959871,-0.0194967,-0.0568341
-0.297826,0.0245788,0.0698491,-0.024442,0.0256746,-0.0389121
-0.352021,0.65663,-0.140662,-0.0967241,0.106796,0.293284
0.861725,0.678935,-0.298666,-0.00883242,-0.139496,-0.0153925
-0.847799,-0.580321,0.273648,0.0388648,-0.0246123,0.0683367
-0.282907,-0.53326,-0.0578959,0.00303173,0.0604945,-0.014601
-0.112378,0.0758524,-0.460808,-0.0543697,0.00353631,-0.0285692
0.203281,0.173195,-0.246568,-0.0154381,0.0347358,0.031571
0.029943,0.0716509,-0.358746,0.0565988,-0.0746578,-0.0239112
-0.165415,-0.0764561,-0.229234,0.0318636,0.00965655,0.0345812
-0.137835,-0.0107401,0.100595,0.0340516,-0.0948784,0.0503963
0.0405331,-0.172022,0.186714,0.0354937,0.00329986,-0.0566471
-0.523839,0.0109614,-0.484364,-0.0849605,0.191655,0.0466316
0.802864,0.103099,0.244414,0.0806612,-0.438103,0.190778
-0.390786,-0.0341702,0.0314194,0.0287924,0.234969,-0.0657495
0.0304784,0.0361161,0.0902362,0.0129329,-0.0610872,-0.0283937
-0.0182582,0.00708504,-0.0390398,-0.0170609,0.0625536,0.0139636
0.122054,0.124366,-0.10552,-0.0250996,0.00749213,0.0256642
-0.0471616,0.13234,0.105347,0.0217883,-0.090792,0.0396546
-0.347026,-0.216059,-0.11789,0.0244125,0.0424992,-0.020488
0.484033,0.172068,-0.158965,-0.0275396,0.0441116,-0.0285424
-0.417325,0.0345464,0.219987,0.00445876,-0.175594,0.0841158
0.105911,-0.0363193,0.238433,0.0122062,0.0120971,0.00301218
-0.0835932,-0.044986,0.087128,0.00751129,-0.0088113,0.0107601
0.207091,-9.44454e-05,0.227891,0.00485536,0.0074228,-0.00939763
-0.199358,-0.12062,0.156636,0.00868466,-0.0368126,-0.00550663
0.0178139,-0.0268522,0.116238,-0.00425804,0.0579643,0.00200617
-0.0858057,-0.0546208,0.0743615,-0.00732458,-0.00828737,9.13143e-05
0.0229878,0.0104794,0.0871692,0.00100836,0.0188037,-0.013343
-0.00388285,-0.0194728,0.0509341,0.00130451,0.00315297,0.00737351
0.0366595,0.0210977,0.0561647,0.00433373,0.00787675,-0.000224888
0.0449122,-0.0110296,0.0136671,-0.00128955,-0.00230238,0.0027824
-0.0881453,-0.0336307,-0.140542,-0.0158021,0.0572701,-0.0324938
0.351059,0.150559,-0.299291,-0.0282173,0.0693631,0.021131
0.0565881,0.132822,-0.184884,0.0330443,-0.109392,-0.0134385
0.0291241,0.0979794,0.0364066,0.0220186,-0.00749043,0.0693603
-0.151772,-0.232905,0.106254,0.0489454,-0.0481215,0.00077188
0.121763,0.11102,0.203346,0.00584087,0.0205244,-0.0454301
-0.0680548,0.0342192,0.183901,0.0123781,-0.0268651,0.0346571
-0.0994632,-0.0876625,0.109782,-0.00204891,-0.00275221,-0.0127297
-0.174371,-0.128286,0.0595485,-0.00493419,0.0232127,0.00510347
-0.133912,-0.098732,-0.126401,-0.0010058,0.0522296,-0.0140607
0.294866,0.223622,-0.080944,-0.00861394,0.0221515,-0.0208885
-0.0471826,0.0166745,-0.0659231,0.0280873,-0.0617422,0.0167038
-0.0486853,-0.0813998,0.047962,0.0248895,-0.00133526,0.0280985
-0.18338,-0.163665,-0.0182536,-0.0200532,0.0111772,-0.0216935
0.122466,0.065744,-0.0314156,-0.0186605,0.0548812,0.0179867
0.139593,0.0443936,-0.0162551,0.0418624,-0.0490259,-0.0203491
-0.168727,-0.0419989,-0.0734753,-0.0172834,0.0170558,-0.00315905
0.153216,0.047521,-0.0546891,-0.00811589,0.0156664,0.0156897
0.069358,0.0327248,-0.000416968,0.0329223,-0.049387,0.0114867
-0.171382,-0.109123,0.0231073,0.00704998,-0.0113839,-0.0229775
-0.100014,-0.0358002,-0.165149,-0.050686,0.0926736,0.0248297
0.351825,0.0717473,-0.164151,0.0135372,-0.0100145,-0.024476
-0.193622,-0.0752014,-0.135326,0.0331666,-0.0920809,0.0467907
-0.280306,-0.176711,-0.189481,-0.0171878,0.0343149,-0.0154923
0.00169394,0.0130827,-0.266587,-0.00483912,0.000313461,-0.0155247
-0.128244,0.0850662,-0.0859023,0.0177552,-0.0761471,0.0342912
0.0449518,0.129207,0.185845,0.0299297,-0.0135067,-0.00403917
0.0374424,-0.0363475,0.192232,0.0488634,0.00782332,-0.035196
-0.090947,-0.0524257,0.105312,-0.0083077,0.0337851,0.0215455
0.153735,0.0469173,0.210289,-0.00525087,-0.0158828,-0.00750118
-0.0936578,0.0246168,0.179594,0.000682652,-0.0098092,-0.00948244
-0.0107765,0.0373041,0.140289,0.0126954,0.00478223,-0.00116545
0.084424,0.010328,0.0264961,-0.0180638,0.03584,-0.000801027
-0.00214015,0.00924979,-0.0165586,-0.00346363,0.0164449,0.0129238
0.0778322,0.0348393,-0.00894549,0.014883,-0.00678307,-0.0141052
0.0270307,-0.0953219,0.0600873,0.0334821,-0.00100875,0.00804687
-0.150763,-0.0513554,0.0805059,-0.00425404,-0.0175155,0.00123382
-0.00191367,0.0274719,0.0196526,-0.0030542,0.000279665,-0.000934005
0.0558622,0.0837928,-0.123669,-0.00900924,0.00436372,0.00204086
0.0160239,-0.0697837,-0.00102073,0.0434849,0.00126311,0.00641167
-0.0255201,0.01783,-0.00708642,-0.0073435,-0.0277343,-0.00295234
-0.0115597,0.00503547,0.0122796,-0.000555396,0.00738412,0.000347495
0.0127906,0.0103104,-0.0143724,0.00558615,0.000838846,-0.00661641
0.00544739,-0.0142147,0.00712695,0.0121242,-0.00474235,0.0115014
-0.00414877,-0.00139291,0.00487108,0.00181836,-0.00290471,-0.00443041
0.00113368,0.010338,-0.00373203,0.00502336,-0.000380337,-0.000113487
0.00966316,-0.00461893,-0.00146726,0.00971115,-0.00394383,0.00292623
0.007652,0.00502961,0.0176955,0.00369209,-0.000511736,0.00121421
-0.0191614,-0.0387917,-0.00776221,-0.000147611,-0.00685701,0.00196505
0.0331491,0.00712454,0.00495579,0.016326,-0.00169027,-0.0115227
-0.0190651,0.000754437,0.00480178,-0.00394553,-0.00159675,0.0124348
0.00431578,-0.0185051,-0.00353433,0.0172893,0.0086433,-0.00880373
0.00538609,-0.00889211,-0.00359275,0.00169861,0.00299233,0.00334257
-0.0201498,-0.0120667,0.00274377,0.00751162,-0.0032244,0.0017212
0.00326831,0.0049981,-0.00262277,0.00375533,-0.004731,0.00635451
-0.0191419,-0.0377167,-0.00456652,0.0117503,-0.0118025,0.00487095
0.0118119,0.00499663,0.000615996,0.00729132,-0.00374925,-0.00603205
0.009726,0.0317128,0.00577644,-0.00933608,0.00798711,0.00123125
0.00320978,-0.0356048,-0.00876965,0.0094744,-0.00353143,-0.000419021
0.0386526,-0.0120534,0.0360869,-0.021602,0.0053882,-0.0175265
0.0064953,0.0274331,0.000449663,0.0130094,-0.00320482,0.0138159
0.019252,-0.00676309,-0.00141622,0.00390714,-0.00102693,0.0118993
0.0331214,-0.0356051,0.00416439,0.0087986,-0.00598586,-0.00420463
-0.0169303,-0.0174027,0.00706431,0.014082,-0.00479358,0.00588942
-0.0106257,0.0103364,-0.0101886,0.00235042,-0.0049715,-0.00207603
-0.015916,-0.0174182,-0.00147985,0.00872654,0.000439495,0.00427103
-0.00954033,-0.0270405,-0.0035303,0.00429291,0.00340611,-0.00343651
-0.0127519,0.00713528,-0.0091073,-0.000811219,-0.000725448,0.00259638
-0.0159771,0.000720215,-0.0133498,0.00858909,0.0021936,-0.00487357
0.00537856,-0.01103,-0.00464822,0.00683254,-0.000989765,0.00137383
-0.00309653,0.0103507,0.00159381,0.00147668,0.00411874,-0.00857294
0.0320605,-0.000356811,0.00179317,0.0100629,0.00624675,0.000259817
-0.000992051,0.00820499,-0.00265762,-0.000234425,-0.0117155,-0.00215316
0.505158,0.753768,-0.420154,0.12744,0.0331931,-0.190823
-1.6191,0.810085,-0.898592,0.218009,0.0536841,-0.28014
-0.209146,0.419579,-0.637557,0.123416,0.282033,-0.144052
1.6388,0.376188,-0.217936,-0.0415068,0.01182,0.0456105
1.50449,0.423267,-0.231567,-0.0540558,0.125388,0.0229203
2.96864,-0.139142,-0.513055,-0.0313185,0.220731,-0.0158484
2.43463,-1.79456,-0.573771,0.00051114,0.00696541,0.156489
0.137391,-1.40802,-0.432091,-0.0655274,-0.107956,0.233653
0.760185,-0.18085,-0.274243,0.0076679,0.0429145,0.103596
0.860835,0.226142,-0.228426,0.00866576,0.00331461,0.066956
0.514174,0.388948,-0.127138,0.00160015,-0.0568947,0.0251989
0.582988,0.482932,0.502894,0.058357,-0.0429899,0.0520288
0.351146,0.052816,0.614865,0.045655,0.0694407,-0.0541922
0.414661,-0.164477,0.386795,-0.0408282,0.0571292,0.0183709
0.0780113,0.205467,-0.172458,-0.031188,0.0610829,-0.0356175
0.462159,0.120655,-0.248465,-0.011457,-0.0460787,0.00613141
-0.0758441,-0.163769,-0.0317416,0.00781809,-0.0562443,-0.0203183
-0.0622904,-0.525309,0.307216,-0.129557,-0.0984903,-0.00812221
-0.198947,-1.22423,0.68092,-0.0773496,0.0383915,0.126962
-0.569741,-0.933618,-0.0574462,0.0671958,0.0970257,0.0669232
-0.478434,-0.0625742,-0.368329,-0.0153307,-0.0372503,0.175969
-0.427993,0.580764,-0.18747,0.106686,-0.00221996,0.106062
-0.534328,0.591899,0.0257498,0.0698633,-0.0416984,-0.0909757
0.0755351,0.698357,0.0818341,-0.0851577,0.0193969,-0.194914
0.498353,0.640753,-0.300852,0.1184,0.0837227,-0.0642233
0.0626248,0.0689445,-0.0605118,0.0847486,-0.0185885,-0.00696325
-0.726666,-0.255826,0.188657,-0.0245561,-0.0318523,0.0467284
-0.0964228,0.265811,0.0519417,-0.0369241,-0.011721,-0.00484055
0.42946,0.421519,0.13624,0.0201617,-0.0211682,-0.0818817
-0.380788,0.0359884,0.449832,-0.168186,-0.146656,-0.0913838
-0.314485,0.0238163,0.847621,0.0107804,0.0253559,-0.0471908
1.28979,0.200232,0.412283,0.230364,0.0147418,-0.030981
-0.0873991,0.306537,0.131843,0.00561836,0.130037,-0.00392091
0.231198,0.0464532,-0.0212704,-0.089281,0.0882142,0.0219159
0.871396,-0.0419729,-0.220235,0.0523768,0.0004915,-0.0327222
0.0538578,0.0304299,-0.0976889,-0.0761228,-0.0673409,0.0850616
0.157497,-0.307511,0.336544,-0.0634119,-0.0289851,-0.0133297
-0.162735,-0.0900017,0.57647,0.0993222,-0.0259002,-0.0327899
0.75377,0.24761,0.396078,0.0516957,-0.17382,0.0378084
0.234243,0.15628,0.478065,0.0651566,0.127952,0.0188404
0.0949758,0.183623,0.17179,0.00952132,0.107568,0.0308509
0.567006,0.241389,-0.187954,-0.0332918,-0.0418152,0.0696331
0.190215,0.0512344,0.25207,-0.148286,-0.0170444,0.0112906
-0.525672,-0.58656,0.509951,-0.14901,-0.0448415,-0.0359299
-0.619557,-0.770539,0.32809,-0.0330737,0.0104524,-0.00272906
-0.718857,-0.461105,0.0874466,-0.113724,0.0789893,-0.0575442
0.0134238,-0.461756,-0.578656,0.0433667,0.178287,-0.0910636
0.461652,-0.383786,-1.00059,0.147984,0.0756193,-0.0115875
0.297579,-0.114512,-1.02218,0.118065,-0.0191884,0.0841398
0.262141,0.193965,-0.561676,0.0789467,-0.0854749,0.0576646
-0.117418,0.145986,-0.0627511,0.020376,-0.0852863,0.027855
-0.174724,0.31013,0.317406,0.000868805,-0.0730776,-0.0221793
-0.787162,-0.0118875,0.384513,-0.127418,-0.013236,0.150516
-3.2112,-0.101596,0.569408,0.105125,0.146296,0.355576
-0.72672,0.807479,0.440328,0.113549,0.226985,0.18486
-1.23778,1.32718,-0.0767409,0.0372468,-0.112524,0.0824581
-1.18351,1.10866,0.822375,-0.0545126,-0.0430457,-0.0729697
-2.28786,0.411479,1.16039,0.0306615,-0.126513,0.0717379
0.200421,-1.5915,1.57161,0.592623,0.996678,-0.765051
0.883919,0.734716,-0.155774,0.0136189,-0.587187,-0.456366
-1.96449,-0.646465,0.450464,-0.0285079,0.18753,0.0773566
1.90954,0.145628,-0.00173674,0.0967213,0.188872,0.0278456
-0.0996986,0.985024,-0.382249,-0.0594158,-0.0710692,0.114651
1.03945,0.81834,-0.525418,0.0454577,-0.183923,-0.112202
-1.01344,-0.417997,0.176882,-0.08704,0.0252894,0.187333
-1.87396,-1.23,0.319963,0.102831,0.0978808,-0.00918639
-0.665184,-0.212487,-0.0464529,-0.0791447,0.0182322,-0.191915
0.174681,0.292131,-0.0508524,-0.046637,0.0566627,0.0850717
-0.110297,-0.100524,0.0809783,0.0387924,-0.0340021,0.0160733
-0.0170869,-0.0110401,-0.0196888,0.0185429,-0.0366161,-0.0346093
-0.0116559,0.0167548,-0.00488988,-0.00336462,0.0372374,0.0103079
-0.036178,-0.0131365,-0.00478731,0.0112052,-0.0142371,-0.0281373
-0.00314755,-0.0665636,-4.32311e-05,0.000993788,0.000492096,0.00571835
0.0145956,0.125562,-0.0792211,-0.0374846,0.0206059,0.041756
2.56211,1.18919,-0.371468,0.0229172,-0.167365,-0.17863
0.289249,0.0753957,0.0621005,-0.0208317,0.0124944,0.143302
-1.81853,-1.0175,0.303836,0.149624,0.0161858,0.180818
-0.995591,-1.00444,0.186098,0.00821555,0.0147676,-0.00204664
0.0379325,0.145806,-0.0984952,-0.0433984,-0.0238584,-0.103756
-0.104129,-0.0525333,0.0390226,-0.0227146,0.0671929,0.0511266
0.0235365,0.0252815,-0.000539702,0.0224036,-0.0330133,-0.0386654
0.00958021,0.00817254,-0.0165072,0.000841647,0.0237529,0.012783
-0.000807652,-0.0579602,0.0341006,0.00988248,-0.0153052,-0.00910723
0.0118569,0.0306411,0.00579535,0.00115842,0.00187927,-0.00698781
0.0460837,0.0477429,0.0261114,0.00452095,-0.0130696,-0.00717026
0.0460676,0.0669632,0.0217124,0.00731751,-0.00534678,0.00163126
0.0503661,0.0498814,0.0293195,0.00604397,0.000565052,0.00454021
0.0503094,0.0391855,0.020839,0.00338537,-0.00773615,-0.00702935
0.0364461,0.015694,0.0209429,0.0116041,-0.0147241,0.00290984
-0.000973959,-0.00674218,0.00171297,0.00513858,-0.0192907,0.00573236
-0.0319019,-0.0238163,-0.00149614,0.00137466,0.000682592,0.000332713
-0.00421621,-0.00889002,-0.00576267,0.0116657,-0.0095759,-0.00366676
6.24275e-05,-0.00141213,-0.00365824,0.00674993,-0.00490606,-0.002159
-0.0159861,-0.0174396,-0.0132309,0.00587672,-0.00387311,0.00252318
-0.0437161,-0.0313104,-0.0164513,-0.00112399,-0.00551319,0.00377071
-0.0170905,-0.00570173,-0.0207903,0.0102831,-0.0116959,-0.00785208
-0.0137682,-0.00993944,0.000618203,0.00509173,-4.27961e-05,-0.00665027
-0.0265891,-0.00246413,-0.00588801,-0.00167513,-0.00421256,-4.673e-05
0.0341997,0.0156637,0.0016991,-0.0021888,-0.00108725,-0.00597262
-0.00419756,-0.00995267,-0.00255027,0.0164015,-0.0178876,0.00763983
0.00438625,-0.00566902,0.00706908,-0.00144079,-0.00279808,-0.00516748
0.0032424,0.00392142,-0.0068875,0.00386062,-0.00121385,0.00483012
-0.000997844,-0.0035455,-0.00258069,0.00226295,-0.00537139,-0.00205302
0.0107581,0.00286464,0.00276306,-0.000823498,-0.0152508,0.00139034
-0.00847498,-0.015295,-0.00466684,0.0127304,-0.0128111,-0.00114191
-0.0148572,-0.00567332,-0.00368733,0.00456628,-0.013416,0.00351608
-0.0180874,-0.0217012,-0.00786948,0.00982541,-0.00317198,-0.00468719
0.0086053,-0.00248104,-0.000414172,0.000641048,0.00333983,-0.00402129
-0.0319649,-0.0345143,-0.0110446,0.012051,-0.0047648,0.000688016
-0.00629718,-0.01101,0.00279106,0.00803068,-0.00672495,-0.0002442
0.00977184,0.00822909,0.0155453,-0.00638527,0.00022763,-0.00371361
0.037494,0.00607623,0.0188711,0.00794926,0.00377291,0.00284857
-0.00305437,0.00502233,0.00910861,0.00691497,-0.00604028,-0.00989777
0.0310411,0.0274248,0.00695487,0.00258434,-0.00511134,0.000176966
0.0277795,0.0380887,-0.0048797,0.00611526,0.00966311,-0.0080626
-0.0511338,-0.0387693,-0.00895118,0.0197453,-0.0045228,0.00033462
0.00757431,-0.00994601,0.00604021,-0.00290772,0.00250316,-0.00476694
-0.00850443,0.0156704,-0.0123487,0.00825381,-0.0123946,0.00457346
0.0150992,-0.00566063,0.016726,0.00772721,-0.00252795,-0.00651884
-0.0159195,-0.0120799,-0.00258122,0.000976324,0.00661409,0.00766051
0.0192543,-0.00249138,-0.00144164,0.00886238,-0.00608319,-0.00327301
-0.0244795,-0.0195601,-0.0079072,0.0106384,-0.0170732,0.00174588
-0.0148738,-0.00033768,-0.0069279,-0.00262898,0.000271916,-0.00513053
0.0213888,0.0306187,-0.00378817,0.00547886,0.00197941,0.000565171
0.0171663,0.00713564,0.00489777,0.00639376,0.00429595,-0.00350213
0.030017,0.0338463,0.0133193,0.00527996,0.00536168,-0.0120071
0.154788,0.126701,0.0228025,0.0020209,0.00260246,-0.00179189
0.00128182,-0.000299642,0.0219811,0.0199744,-0.00368309,0.0120831
0.0215078,0.0253123,0.0165489,0.0027113,-0.00745064,-0.0162809
-0.00422063,0.00819824,-0.00801228,0.00196275,0.00370127,0.00929165
-0.0266456,-0.000344737,-0.0155175,0.00563797,-0.00630587,-0.00462121
-0.0266287,-0.0174273,-0.0111352,0.0156307,-0.00819457,0.0121896
0.019373,0.0178364,0.0165897,-0.00210321,0.011775,-0.00638872
0.0290213,0.00716644,0.0273784,0.00278926,-0.00281048,0.0077641
-0.0201502,-0.0387684,0.00505503,0.0177526,-0.0192299,0.00293189
-0.0127432,-0.0142241,-0.00576115,-0.0045315,-0.000464261,-0.002258
-0.0395408,-0.0259988,-0.0314282,0.00945809,-0.000406504,0.00559723
-0.0426995,-0.0398704,-0.02387,0.00761461,-0.000767529,-0.0034523
-0.0308952,-0.0387857,-0.00994517,0.00435358,-5.00083e-05,0.000730693
-0.0394634,-0.0377253,-0.0174609,0.00656652,-0.000837028,0.000174582
-0.0245103,-0.03025,-0.0121108,0.00720274,-0.0135333,-0.000412345
-0.0308828,-0.0014017,-0.011254,-0.00245285,-0.00567973,0.00518858
-0.00424358,-0.0249174,-0.00886657,0.0117414,-0.00515258,0.00684756
-0.00419767,0.00286437,-0.00370306,0.00625652,-0.00757086,-0.000498891
5.01019e-05,-0.0131637,-0.00465139,0.00693375,-0.00665557,0.00365794
0.0107556,-0.00247713,0.00279939,0.00559866,-0.00315338,0.00363743
-0.00843624,-0.0142148,0.00173529,0.00595462,-0.00922608,0.00435328
0.0118443,0.00607419,0.00595128,0.00820524,0.000241339,-0.00349844
0.0267697,0.0349026,0.00475131,0.00695604,0.000124156,-0.00117141
0.00868305,0.0124943,0.0112418,0.00753558,0.00749022,0.00448209
0.0118598,0.0242351,0.0069025,0.00425705,0.000223517,0.00160378
0.0310772,0.0359802,0.0122405,0.00906676,-0.00392032,-0.000667036
0.032171,0.0413277,0.0164841,0.00549975,-0.00217909,0.00163007
0.0332082,0.0359788,0.0122482,0.00557119,0.00402069,0.00132298
0.00754061,0.0124738,-0.00158613,0.0108651,-0.00552112,0.00270379
-0.0127108,-0.000329913,-0.00157771,0.00465906,-0.00777,-0.00161397
-0.0191481,0.000729715,-0.00908716,0.00689125,0.0017637,0.00352538
-0.0106699,-0.0142415,-0.0153714,0.010633,-0.00555557,0.00576204
-0.0116314,-0.0238235,0.00285237,0.00417578,0.0044167,-0.0051769
-0.00954876,-0.0184992,-0.00572147,0.00549185,-0.000509441,0.000538945
-0.00207998,-0.0110253,-0.00467418,0.00899392,-0.0013454,-0.00226891
-0.018064,-0.0259661,-0.00356889,0.00863391,-0.000377059,-0.000314474
-0.01383,-0.0185019,-0.00894226,0.00562274,-0.00152326,0.00161719
-0.00741936,-0.0088886,-0.00684502,0.00824445,-0.00355422,-0.0023039
-0.00845652,-0.0163566,-0.00145663,0.00434822,-0.00408143,0.000644445
-0.0138462,-0.0249136,-0.0110401,0.00780022,-0.00301427,0.00362682
-0.0116654,-0.0152893,-0.00361341,0.00367516,-0.00478464,-0.00109708
-0.00952325,-0.0184914,-0.00144839,0.00587749,0.00145781,0.00782561
-0.0116932,-0.019569,-0.0078606,0.00769565,-0.00617391,-0.00758737
-0.0169814,-0.00460118,-0.00263483,0.00696069,-0.00552708,-0.000211418
-0.0202105,0.00713999,-0.00913336,-0.00342369,0.00370789,-0.00121719
0.00327426,0.0167477,-0.00269789,0.00894195,0.00519758,0.00542736
-0.00523448,0.00928201,0.000524763,0.0101132,-0.00380933,-0.00680661
0.0321471,0.0445246,0.01219,-0.0019486,0.00641918,-0.00289035
0.0481342,0.0530586,0.0121936,0.00689429,0.00491166,0.00531471
0.0578587,0.0413426,0.0358112,0.00748527,-0.00415111,-0.00466269
-0.0115953,-0.0152681,0.00813813,0.0103033,-0.00944114,0.0121125
-0.0160055,-0.00462741,-0.0175907,0.00164491,-0.00693965,-0.00406778
-0.0170623,-0.0131698,-0.0153994,0.00818273,-0.00522316,-0.000968993
-0.0340737,-0.0280975,-0.00788976,0.00707799,0.000555158,0.0081439
0.00326537,-0.0142289,-0.00142672,0.00675523,0.0036152,-0.00344884
0.00863716,-0.0152876,0.00607854,0.00714117,-0.000196159,-0.000809431
-0.00312212,-0.00247309,-0.00152876,0.00700974,-0.00719011,0.00262767
-0.00635167,-0.0174332,-0.00571689,0.00505126,-0.00276148,0.00175709
-0.0352089,-0.0270498,-0.0196521,0.00708938,-0.00385356,0.00507343
-0.0330528,-0.0281117,-0.0153641,0.00632751,-0.00202578,-0.00361907
-0.00853867,-0.00142731,-0.0165134,0.00276172,-0.0033915,-0.00242716
0.0407053,0.0359843,0.0186871,0.0101048,0.0155676,-0.00295293
0.0695556,0.0701635,0.0292581,0.00249305,-0.00557864,0.0102963
0.0718012,0.0434944,0.0508083,0.00238401,0.000534654,-0.00277209
0.0439275,-0.00246022,0.0264279,0.016445,-0.0163878,0.0104683
0.0129513,0.0253109,0.0111714,0.00604707,-0.00946021,0.00358576
-0.00316361,0.0167392,-0.0102004,0.00974473,-0.00501388,0.00494999
-0.0416309,-0.0206448,-0.0250606,0.00552294,-0.0017451,0.000896931
-0.0512612,-0.0249212,-0.0314805,0.00614911,-4.48823e-05,0.00178373
-0.043795,-0.0227887,-0.0303975,0.00645664,4.92334e-05,0.00173253
-0.0448185,-0.0281156,-0.0228882,0.0102596,-0.00400192,0.00589919
-0.0170187,-0.0152924,-0.00790808,0.00247329,0.00438631,-0.00598902
-0.0212857,-0.0249027,-0.00786221,0.0070433,0.00267088,0.00422657
0.00433876,-0.0110225,-0.000376564,0.00573468,-7.73072e-05,-0.00150204
0.0054175,-0.00995089,0.00175629,0.00634462,-0.000846148,0.000886738
0.00756459,-0.00353987,0.00386022,0.00368652,-0.00044477,0.00031656
-0.00312463,-0.0078149,-0.00149233,0.0113403,-0.00473356,0.00365305
-0.00844923,-0.0142174,-0.000404013,0.0080744,-0.00778311,-8.84533e-05
0.00328067,-0.00888345,0.000673958,0.00272804,0.00512075,-0.00094974
-0.00846643,-0.00994943,-0.0036388,0.00672776,-0.00890219,0.00441551
8.09613e-05,-0.00247416,-0.000447175,0.00938135,0.000457048,-0.00332522
-0.00955834,-0.0120938,-0.00789994,0.00625014,-0.00210154,0.00433636
-0.0084424,-0.000330402,-0.000495075,0.00502878,-0.000863731,-0.00172901
0.0203466,0.0263547,0.000508233,0.00775611,0.00234568,-7.24792e-05
0.0182514,0.0210258,0.00694705,0.000144243,0.000472665,0.00086081
0.0129322,0.0124883,0.00911882,0.0106633,-0.00941265,0.00617707
0.0236051,0.0220979,0.0112332,0.00589103,-0.00376165,-0.00021112
0.0118177,0.0167466,0.00054021,0.00704294,-0.000630617,0.000851631
-0.00950885,-0.00246679,-0.000483509,0.00863552,-0.00460744,-0.000346303
-0.00955791,0.00179138,-0.00905955,0.00500178,0.000100255,0.000869036
-0.0234472,-0.008889,-0.0143856,0.00782114,-0.00333136,0.00209594
-0.0138034,-0.00354133,-0.00583439,0.00783479,-0.00119382,0.00514448
-0.00420322,-0.0206328,-0.00248484,0.00696203,0.00481337,0.00502586
0.0128864,-0.00247766,0.0028051,0.0022245,0.00265336,-0.00440657
0.00220755,-0.0110202,-0.000386171,0.00471705,-6.00815e-05,-9.56059e-05
-0.00205983,-0.00888283,-0.0014837,0.00733048,-0.0027523,0.000376821
-0.00846693,-0.0110178,-0.0036315,0.00417548,-0.00209045,0.00437391
-0.0170534,-0.0206426,-0.0132159,0.0049136,-0.00336158,0.00223958
-0.0191557,-0.0142245,-0.00899136,0.0114237,-0.00658703,-0.00382185
-0.00846957,-0.0163589,-0.00359659,0.00409538,-0.00177461,-8.98242e-05
0.000101243,-0.0131489,0.00389638,0.00689813,0.00517637,0.0013842
0.00864018,-0.00887755,0.006035,0.00627446,-0.00827938,-0.000524819
-0.0127498,-0.0142251,-0.00683142,0.00995791,-0.00488049,0.00434327
-0.0266805,-0.0185099,-0.019677,0.000233263,-0.00541615,0.00401258
-0.0373549,-0.0441406,-0.0206188,0.00822496,-0.00632465,0.00225806
-0.0319506,-0.0184892,-0.0100807,0.00267428,0.000928879,0.00292146
-0.0244951,0.00072896,-0.0123143,-0.0011,-3.78489e-05,0.000911415
0.00218479,0.0199455,-0.00699612,0.00764918,0.000109076,0.000518203
-0.0244679,0.00394091,-0.00806106,0.00912118,-0.00393325,-0.00055778
0.000105429,0.02103,0.00153703,-0.00047946,-0.000454962,-0.00227427
0.0160277,0.0274085,-0.009129,0.00631303,0.00753105,0.00258583
0.00116602,-0.00140019,0.00275318,0.0125249,-0.00727731,-0.000965953
0.0108181,0.00822336,0.0123425,0.00608885,0.00103742,-0.00279462
-0.0522973,0.00819669,-0.0295608,0.00251022,0.00908709,0.00605011
0.0118133,0.00820201,0.000593511,0.00562739,-0.0126657,0.012644
0.0193435,0.0103528,0.0123617,-0.00230864,-0.000138879,-0.0101874
-0.037333,-0.0259781,-0.0185986,0.00757909,-0.00367421,0.0128618
-0.036281,-0.0398661,-0.0195755,0.00898093,-0.00702202,-0.000251889
-0.0310784,-0.0345671,-0.040958,0.0142412,0.0362068,0.000473738
-0.163762,-0.0506511,-0.133237,-0.00545079,-0.0218117,-0.00554836
-0.0736945,-0.136309,-0.209272,0.0132832,-0.00328141,0.000523269
-2.25754,-0.0140192,-0.85931,0.0168945,0.120924,-0.116999
-4.32234,1.28686,-3.08716,0.0429496,0.40836,0.487775
0.113924,3.88118,-1.98046,-0.179708,-0.188487,0.205993
-3.07556,2.7052,0.371149,0.248822,-0.29418,-0.0309043
-2.66134,1.61239,1.13731,0.304676,0.147671,0.0206072
-1.08744,0.92658,-0.0233656,0.274916,0.284529,-0.159004
-1.03289,0.644949,0.214792,0.087708,0.0354365,0.128779
-0.876125,0.719633,0.230922,0.0790874,0.0584497,0.272783
1.62888,0.360701,0.0844988,0.208824,0.148336,-0.11569
5.90489,0.0519144,0.668787,0.0606076,0.263182,-0.0824951
9.53936,0.150057,1.55468,-0.199099,-0.220607,0.235121
6.13786,1.79854,2.05159,-0.087308,-0.337563,0.171623
-0.486704,1.21417,0.984566,0.210631,0.234271,0.00299311
0.22676,0.106082,0.478361,0.0657777,0.0989358,-0.21609
-1.42674,-1.35218,0.281826,-0.0242378,0.173981,-0.0938037
1.33454,-0.509602,0.120024,0.0286146,0.318094,0.130172
2.26712,0.288437,-1.86897,0.3224,0.356328,-0.0455701
-0.129432,-2.76654,-1.63162,-0.215937,0.0773987,-0.0696456
-0.78225,-1.33322,-0.813181,-0.482329,-0.481545,0.0963767
0.2575,0.463581,-1.54,-0.209781,-0.085718,0.253768
0.0327287,-0.226453,-0.400612,0.53986,0.0465656,-0.0926847
0.294084,0.640997,-0.249262,-0.0135844,0.0463317,-0.0367668
-0.0688497,0.986989,0.143529,0.0713152,0.0783216,0.0435786
-0.439053,0.451109,-0.421728,-0.157486,0.195605,-0.0970954
-0.535419,0.214252,-0.300887,0.12816,0.112682,0.0321412
-1.83929,0.23393,-0.607199,0.175139,0.212862,0.286404
0.132951,-0.360772,-0.199564,0.170582,0.0376684,-0.115283
1.5965,-0.0681224,0.410897,-0.0578476,0.0438689,0.0390518
1.63993,-0.200981,0.200368,0.0117721,-0.0613657,-0.0545014
0.434175,0.425296,-0.144768,-0.0121067,-0.0504076,0.0577208
0.0318566,0.0391005,-0.0358579,-0.0277681,0.0469266,0.00808966
-0.320278,-0.114271,0.0695963,0.00365712,0.0249343,0.0372562
-1.10683,-0.27501,0.0495287,0.0126748,0.103741,-0.00751901
-3.92811,-1.24185,-0.0113937,-0.0367987,0.130797,-0.137226
0.0270024,-0.151936,0.0604538,0.0155536,-0.0147053,-0.0654979
-0.0217992,-0.677001,0.321172,0.146397,-0.0214683,0.0447786
-0.587585,-0.305208,0.109366,0.0361822,0.022954,-0.0641338
0.253953,-0.12968,0.0579558,-0.0828038,-0.00557375,-0.0290495
-0.113434,0.00630043,0.0813414,0.021919,-0.0535869,0.0576409
-0.512275,0.0153578,0.201593,-0.0179518,-0.0241094,-0.0137221
-0.138262,-0.0845578,0.0358943,0.0143043,0.0142895,-0.0213335
-0.923258,0.0549629,0.0705156,0.0233738,-0.0349,0.0251303
-0.00738408,-0.092186,0.00651802,0.00750762,0.0313673,-0.0199587
-0.0683244,0.124612,-0.0474705,0.008053,-0.0406533,0.0699047
0.0456114,-0.194841,-0.03108,0.0247859,0.128849,-0.022863
-0.170721,-0.254496,-0.0315052,-0.0240766,-0.0116459,0.0109647
-0.259853,-0.0695496,0.0139733,0.00168765,-0.00693521,0.0207865
-0.12645,0.0970257,0.0347625,-0.0232429,0.016144,-0.0106562
-0.0207922,0.0670909,0.0663378,0.00535786,0.00734085,0.0119383
-0.124053,0.0404962,0.0842854,-0.0108654,-0.0101742,0.00715089
-0.159164,0.0800547,0.0892404,0.00767761,0.00693819,0.0154122
-0.0977543,0.0649411,0.0254629,-0.0223024,0.00686625,-0.00332791
-0.0755983,0.0723372,-0.0118994,0.00229377,0.0118722,2.08616e-06
-0.0392672,0.00932462,0.011085,0.0114282,0.0159904,-0.012489
0.0236681,0.019979,0.0219339,0.0202712,0.0132822,0.00125819
-0.00935213,-0.00883001,0.026271,0.00869727,0.0142114,0.000977397
-0.0234331,-0.00675031,-0.0122595,-0.0113718,0.000169903,0.00294018
-0.0352554,0.0071122,-0.0305549,-0.00580758,0.0103815,0.00111181
6.40331e-05,-0.0238405,-0.00137582,0.00368819,-1.72853e-05,-0.00976586
0.0193907,-0.0238126,0.0232718,0.0114889,-0.000324368,0.00770557
-0.0201139,0.0210515,0.00573745,0.00310501,0.0071387,0.00597262
0.00854032,-0.0174525,-0.00993337,-0.000225782,0.0130909,0.00718647
0.00433731,-0.0270444,0.000797471,-0.00115117,0.00646147,0.0102682
-0.0020641,-0.00568291,-0.00256694,0.00309569,0.00323018,-0.00158185
-0.0542401,-0.0120407,0.00368744,0.00193182,0.0191219,0.000451684
-0.00520222,-0.00352673,0.00702204,0.0010514,0.00422949,-0.00259686
-0.0179817,-0.0152635,0.009187,0.0052506,0.000368953,0.0114869
-0.0307761,0.00717288,0.0057877,-0.00447193,0.00779843,-0.000303864
-0.00207443,0.0124719,-0.0058925,-0.00412998,0.00975159,-0.0106637
0.0224019,0.00176395,-0.0100047,0.000522792,0.00548139,0.000887096
0.0212996,0.0434078,-0.0198955,0.00603378,0.0137915,0.00177521
-0.0106213,-0.00782258,-0.00792659,-0.00118402,0.0118663,0.00580686
0.0160231,0.00497715,-0.00791276,0.000815034,0.00451946,-0.000876188
0.00645834,-0.00889277,-0.00251658,0.00588125,0.00111514,0.014345
-0.0105474,-0.00032401,0.00377648,0.00410691,0.00616482,0.00612664
-0.0126944,-0.00673566,0.00167388,0.00330117,0.00558165,0.00436175
-0.0180137,-0.0152726,0.00384441,0.000140786,0.0049811,0.00428247
-0.010515,-0.0120622,0.0102618,0.00098449,0.00145057,0.00220436
-0.0329274,-0.0206002,0.00489081,-0.00160226,0.00888148,-0.000813186
-0.0159072,-0.000328492,-0.0015876,0.000201643,0.000802875,-0.00473106
-0.0222607,-0.0109936,0.00593909,0.00153056,0.00533003,0.00234437
-0.00205509,-0.000339811,-0.00153367,-0.00291604,0.00606281,-0.000395656
-0.0031291,-0.00461392,-0.00257786,0.00139102,0.00376093,0.00317764
-0.024377,-0.00671484,0.00803889,0.000894368,0.00408188,0.00220239
0.000118587,0.00821528,0.00482978,-0.00101033,0.00796545,0.00507814
-0.0201643,-0.00352881,-0.000512633,-0.000977695,0.00648788,0.00339878
-0.00736205,0.0156912,0.000478558,-0.0016436,0.00378686,-0.00449216
-0.0191169,0.0114176,-0.00487923,0.000615358,0.00751635,0.00454068
0.0352548,0.00711446,0.000692125,0.000873834,0.00346306,-0.00159001
0.0277196,-0.00571993,-0.0110033,0.00203499,0.00531539,0.00357139
0.0256087,0.00924042,-0.00897201,0.00317091,0.00672603,0.00266659
0.0362716,0.01137,-0.00787603,0.0017747,0.00535646,0.00595278
-0.0222075,-0.00670574,0.0144587,0.00137946,0.0115246,0.00196481
0.0213722,0.0092509,-0.00471377,-0.00501734,0.00635961,-0.0014559
-0.00952941,0.00713839,-0.00481729,0.00527537,-0.00132307,0.00608957
0.00118355,0.00714647,0.00484032,0.00343862,0.00588197,-0.000606298
-0.0115607,0.00182778,0.012307,0.00551337,0.00725922,0.0102544
0.00326203,0.00392458,-0.00367689,0.00131461,0.00795725,-0.000951171
-0.0095238,-0.00781411,-0.0025802,0.00636759,0.00288171,0.00669712
-0.0254339,-0.0152564,0.0102284,0.00499192,0.000636786,0.00876254
